gold_2019-03-18_12.57.39, 10um, 128 pixels, Left.wsf

Pixels in X: 	128
Lines in Y: 	128
X Range: 	10.000
Y Range: 	10.000
Z-Drive Calibration: 	1.0000
Z-Sense Calibration: 	1.9316
X Calibration: 	0.5952
Y Calibration: 	0.5940
X Offset: 	5.000
Y Offset: 	5.000
Rotation(°): 	90
Scan Rate(Hz): 	0.80
Scan Type: 	Vibrating
Vpp: 	0.200
Phase: 	86.51
Demod Gain : 	4dB
Selected (kHz) : 	149.69
Display Type: 	Z_DRIVE
Samples/Pixel: 	25
XY HV Gain: 	3
Z HV Gain: 	3
Z Sensor Gain: 	640
X GPID: 	100.000000000 %, 256, 4096, 0
Y GPID: 	100.000000000 %, 256, 4096, 0
Z GPID: 	1.0000, 100, 1000, 0
Setpoint: 	727





-775.0577	-835.2238	-851.5253	-867.4701	-883.5856	-898.3267	-911.0568	-924.2201	-938.0246	-943.4475	-943.9377	-964.7189	-989.3342	-1002.2502	-1014.5359	-1026.5569	-1038.6216	-1050.7126	-1062.2456	-1072.5027	-1082.1798	-1098.9628	-1110.8590	-1122.3307	-1135.1745	-1145.8474	-1157.2052	-1169.1255	-1180.9298	-1191.4145	-1203.0875	-1214.7518	-1226.2453	-1237.2509	-1247.9522	-1259.9797	-1270.0946	-1281.6735	-1292.9679	-1304.0741	-1314.2568	-1318.8634	-1321.1043	-1323.0039	-1350.2912	-1367.9123	-1378.1957	-1389.0918	-1397.6901	-1404.2728	-1419.9572	-1409.2843	-1426.1110	-1445.1152	-1454.6852	-1458.3332	-1463.6839	-1487.9622	-1499.3529	-1509.3977	-1519.6439	-1528.4588	-1537.6458	-1549.0649	-1554.5775	-1567.7890	-1577.3742	-1587.8261	-1598.1664	-1606.2635	-1614.7742	-1624.8234	-1634.5159	-1643.2280	-1652.9642	-1661.1533	-1669.6465	-1669.9726	-1688.5741	-1697.8836	-1707.6002	-1715.9227	-1724.4138	-1733.7911	-1742.7221	-1747.6132	-1740.6474	-1769.5126	-1778.4085	-1787.8997	-1796.1128	-1804.6301	-1813.9484	-1822.1331	-1830.4490	-1835.5962	-1843.1178	-1857.1455	-1864.4329	-1873.1581	-1882.1219	-1889.6610	-1898.3971	-1907.4550	-1914.3288	-1922.1370	-1920.1543	-1940.7626	-1948.2864	-1956.1669	-1964.3034	-1951.3524	-1957.6047	-1963.4127	-1997.1821	-2005.5156	-2013.3436	-2021.3028	-2029.8202	-2036.4007	-2044.9859	-2053.4725	-2052.1507	-2064.1914	-2076.6216	-2083.5195	-2092.2819	-2099.9742
-774.9067	-832.3351	-849.5054	-864.7981	-879.8084	-894.7290	-908.0192	-920.7361	-934.7201	-943.8611	-942.3161	-968.3976	-986.3492	-999.0901	-1010.6406	-1022.8694	-1035.3674	-1047.7473	-1059.3087	-1070.9511	-1081.7421	-1094.9667	-1107.3641	-1119.0502	-1131.0581	-1142.3174	-1151.1171	-1160.6323	-1174.9839	-1187.7117	-1199.5467	-1211.7799	-1222.6366	-1232.8412	-1245.1401	-1255.7517	-1266.7485	-1278.0735	-1288.7486	-1300.6470	-1310.9982	-1318.9969	-1326.0983	-1328.5559	-1335.1540	-1364.6516	-1374.5717	-1385.4240	-1382.8242	-1379.3490	-1402.9182	-1397.4866	-1412.3590	-1444.6316	-1454.7442	-1461.1738	-1466.1152	-1485.0275	-1496.9806	-1505.6161	-1516.3656	-1524.8151	-1534.2953	-1545.9595	-1539.8911	-1552.3256	-1568.4915	-1584.2262	-1594.3432	-1602.2565	-1611.7958	-1621.3198	-1631.0823	-1639.2670	-1649.0120	-1657.7569	-1667.2152	-1671.4301	-1685.1514	-1687.6178	-1703.7311	-1712.9925	-1721.1706	-1730.4954	-1739.5970	-1746.7881	-1747.5103	-1766.1162	-1774.6620	-1783.8599	-1792.5238	-1801.1308	-1809.9020	-1818.2552	-1826.4661	-1834.6749	-1842.4875	-1852.9941	-1861.9206	-1869.7420	-1878.4957	-1886.0676	-1888.4376	-1903.6646	-1910.5931	-1919.3184	-1923.8090	-1936.4799	-1944.8243	-1952.9893	-1961.2703	-1958.4975	-1965.0869	-1962.2616	-1980.5808	-2001.7669	-2009.5401	-2017.0332	-2026.1764	-2032.8599	-2041.2656	-2049.8441	-2053.6520	-2063.0425	-2072.8641	-2079.8758	-2088.8548	-2096.0350
-774.3793	-829.3698	-846.4788	-862.5571	-877.1079	-891.3742	-904.3646	-917.4053	-931.5009	-942.2548	-932.3172	-961.6201	-982.6004	-994.2887	-1007.5243	-1019.5014	-1031.7741	-1044.7601	-1056.7023	-1068.2462	-1079.8689	-1091.4631	-1103.4884	-1115.9689	-1127.6857	-1139.1902	-1149.2679	-1147.5784	-1156.1198	-1177.1001	-1196.1743	-1208.7402	-1219.7808	-1229.7862	-1242.2798	-1252.4735	-1263.0982	-1275.1126	-1285.2756	-1297.0318	-1308.1927	-1317.2287	-1326.5710	-1333.5936	-1340.2858	-1361.0823	-1370.9695	-1381.4871	-1383.2706	-1378.8719	-1379.7232	-1396.2676	-1413.1162	-1442.6182	-1453.0045	-1461.2351	-1468.5619	-1483.2024	-1493.5908	-1502.7165	-1512.9123	-1521.3180	-1530.8726	-1542.7273	-1528.9687	-1539.4227	-1548.6053	-1580.7159	-1590.5572	-1599.0045	-1608.9115	-1617.3609	-1627.6530	-1636.2360	-1644.9350	-1654.2204	-1664.4162	-1670.8414	-1682.6720	-1669.1563	-1696.6319	-1709.6420	-1717.7435	-1727.0005	-1736.9162	-1744.3481	-1747.7051	-1763.1203	-1771.0905	-1780.3781	-1788.8823	-1798.0036	-1806.1598	-1815.1258	-1823.6124	-1831.9525	-1837.9969	-1848.8186	-1858.5045	-1866.7154	-1874.1473	-1883.2095	-1877.2286	-1888.5274	-1903.4305	-1915.3902	-1922.9336	-1933.4183	-1941.1347	-1949.5557	-1958.2656	-1961.0711	-1968.4964	-1971.2691	-1976.2981	-1996.0201	-2006.6142	-2013.8294	-2022.6181	-2029.8289	-2037.9370	-2046.6119	-2053.5623	-2061.1364	-2067.9117	-2076.4771	-2085.2439	-2092.7480
-773.3223	-826.7284	-844.3189	-859.8238	-873.6020	-888.1222	-901.0294	-914.4050	-928.4043	-940.4800	-939.3267	-949.2118	-964.7014	-980.6571	-1004.7953	-1016.7506	-1028.0953	-1041.5497	-1054.4986	-1065.0511	-1077.3675	-1088.9114	-1100.1270	-1113.2444	-1124.4972	-1135.9864	-1147.2873	-1150.9901	-1154.7279	-1158.2776	-1191.6246	-1204.9455	-1216.2136	-1227.1382	-1238.7412	-1249.8846	-1259.8112	-1272.3268	-1282.6014	-1286.1554	-1302.5816	-1315.2919	-1324.4023	-1333.7928	-1343.3561	-1357.5458	-1367.6650	-1378.3861	-1384.6296	-1388.3849	-1388.8598	-1403.2487	-1406.5510	-1433.8164	-1451.0196	-1459.6135	-1467.7544	-1477.8845	-1489.9011	-1500.0663	-1509.8485	-1518.1404	-1527.8920	-1538.9894	-1535.5493	-1545.4759	-1545.7057	-1577.3042	-1587.5285	-1595.8007	-1604.9089	-1613.9032	-1624.4317	-1633.8331	-1642.0397	-1650.8196	-1660.8382	-1668.9637	-1679.4659	-1672.8044	-1690.9858	-1705.9195	-1714.6885	-1723.1358	-1733.1346	-1741.6169	-1737.7084	-1759.2643	-1768.5388	-1777.1064	-1785.9739	-1795.1740	-1802.9319	-1812.2983	-1820.7018	-1828.9237	-1821.0979	-1833.9417	-1847.4268	-1863.7239	-1870.7005	-1880.2880	-1881.4260	-1883.1110	-1889.6697	-1906.3980	-1921.1435	-1931.4225	-1937.8170	-1945.8573	-1955.1602	-1960.6947	-1968.0784	-1974.4161	-1980.9375	-1989.2119	-2003.4651	-2011.0326	-2019.4033	-2026.7761	-2034.7091	-2043.7604	-2051.6977	-2058.5672	-2051.1506	-2072.5752	-2081.7315	-2089.9074
-771.8824	-824.0235	-841.6950	-855.9941	-870.3063	-884.9665	-898.3618	-911.2056	-924.9532	-938.1099	-944.3994	-953.8140	-962.4013	-979.1274	-1001.3682	-1013.7393	-1025.2066	-1038.2737	-1052.0891	-1062.0880	-1073.9951	-1086.3422	-1097.0216	-1107.2744	-1118.4659	-1132.7957	-1144.5759	-1151.9924	-1159.8401	-1156.4152	-1188.5280	-1201.6826	-1212.3686	-1223.9541	-1235.3338	-1247.0156	-1256.4389	-1268.7750	-1279.7542	-1268.6677	-1282.4679	-1312.8124	-1321.1547	-1332.5388	-1342.9578	-1353.9349	-1364.6231	-1375.5630	-1383.6339	-1391.4465	-1397.4297	-1408.7285	-1413.6130	-1420.9464	-1447.8682	-1456.9217	-1465.6994	-1457.7292	-1487.1371	-1496.4532	-1506.2726	-1515.6500	-1524.2198	-1535.3129	-1538.7443	-1547.7606	-1553.4220	-1573.9669	-1584.1517	-1591.8134	-1601.0988	-1610.1326	-1620.8383	-1630.6752	-1639.2407	-1647.4516	-1657.4111	-1666.1560	-1675.6318	-1677.9691	-1690.7844	-1701.9650	-1711.9836	-1719.5271	-1728.7447	-1738.5313	-1734.3755	-1750.9505	-1765.4969	-1773.7516	-1782.8423	-1791.9089	-1799.3954	-1808.5846	-1817.2835	-1825.4332	-1822.8027	-1823.5139	-1833.0336	-1860.3603	-1868.6544	-1876.3773	-1882.6493	-1887.4156	-1889.1029	-1889.7660	-1915.3486	-1928.0633	-1935.0180	-1942.3645	-1951.9673	-1958.8761	-1966.4634	-1974.1950	-1981.5153	-1973.3416	-1999.8454	-2007.8375	-2016.0178	-2023.6051	-2031.4921	-2040.0729	-2048.0693	-2055.4158	-2048.0496	-2055.0460	-2078.4620	-2086.4848
-769.2781	-821.1567	-838.0469	-852.4445	-867.7218	-881.8939	-895.6131	-908.0258	-921.4452	-934.8711	-945.3930	-955.7135	-966.6797	-981.5587	-997.4904	-1010.5005	-1022.0816	-1035.0217	-1048.9750	-1059.2037	-1070.2179	-1083.1493	-1093.7412	-1088.4102	-1100.1686	-1129.3183	-1141.3392	-1151.3403	-1160.8883	-1164.5889	-1186.4512	-1198.9755	-1209.0947	-1216.1983	-1227.0769	-1243.7286	-1253.2329	-1264.8490	-1276.5832	-1273.0949	-1270.3835	-1309.6896	-1309.1950	-1328.4093	-1340.6359	-1350.4619	-1361.1173	-1372.8844	-1381.6600	-1390.3392	-1399.7866	-1409.4484	-1410.3347	-1422.3382	-1443.9006	-1453.5931	-1463.8524	-1452.2932	-1478.7665	-1492.4966	-1502.5348	-1512.5600	-1520.9875	-1532.1528	-1538.3242	-1546.5220	-1555.6083	-1570.7390	-1580.9063	-1588.3885	-1598.4158	-1594.8137	-1610.6272	-1625.9636	-1635.5313	-1644.4973	-1654.6428	-1663.6744	-1672.4258	-1678.5687	-1686.1450	-1697.8114	-1708.9089	-1717.2927	-1725.7750	-1733.2156	-1737.6821	-1749.4952	-1762.0720	-1770.4537	-1778.8966	-1788.5934	-1796.1653	-1805.0591	-1814.2198	-1822.1812	-1826.1291	-1829.9413	-1838.4674	-1856.7932	-1866.0567	-1872.6832	-1880.9620	-1888.1597	-1892.3221	-1892.1798	-1903.0913	-1923.8790	-1931.8864	-1939.6553	-1948.0085	-1956.1844	-1963.6097	-1972.2386	-1980.2788	-1974.5561	-1991.4485	-2001.6771	-2012.7877	-2020.3837	-2028.3145	-2035.4291	-2044.6860	-2052.5818	-2052.1857	-2054.5558	-2075.2385	-2083.1584
-763.6889	-818.1673	-835.1232	-849.4682	-864.7521	-878.5435	-892.0548	-904.6447	-918.2194	-931.7066	-943.4978	-955.0067	-967.2224	-979.9743	-994.2975	-1007.2463	-1018.8602	-1031.8485	-1045.1847	-1056.2274	-1067.6181	-1080.0286	-1090.9225	-1074.8727	-1089.2221	-1121.5253	-1137.9362	-1149.6858	-1159.8598	-1167.1100	-1183.8995	-1195.7410	-1206.2542	-1212.9660	-1208.8387	-1234.8370	-1250.7446	-1261.3562	-1273.5129	-1277.1413	-1274.2832	-1306.3610	-1298.5659	-1310.5693	-1336.8937	-1347.4638	-1357.3270	-1369.0022	-1379.3862	-1388.1661	-1398.5479	-1408.9867	-1398.4407	-1408.2295	-1438.0970	-1450.2492	-1461.5415	-1460.6486	-1471.1552	-1489.8267	-1499.5017	-1508.3910	-1518.6503	-1529.4873	-1536.2780	-1543.8630	-1555.1487	-1566.9464	-1577.9191	-1586.0228	-1595.5950	-1594.3585	-1592.6362	-1619.1182	-1631.6600	-1641.2103	-1651.2135	-1661.2299	-1669.9529	-1676.7961	-1683.0134	-1684.6853	-1704.5189	-1714.9730	-1722.5843	-1717.1132	-1728.0159	-1748.1384	-1759.2599	-1767.3045	-1775.3754	-1785.6500	-1793.6662	-1802.0937	-1811.1647	-1819.6645	-1826.1291	-1832.6156	-1840.2663	-1853.0991	-1862.0082	-1869.3634	-1877.6991	-1886.9539	-1892.7029	-1896.7624	-1906.2491	-1920.4126	-1928.2318	-1936.9329	-1944.6536	-1953.5101	-1960.4080	-1970.1158	-1977.8541	-1978.8979	-1974.6152	-1983.0472	-2003.3666	-2016.9545	-2025.3448	-2031.9757	-2042.1015	-2049.8901	-2053.0961	-2058.0551	-2072.2338	-2079.9939
-762.0367	-814.2960	-833.3111	-846.4657	-860.5306	-875.3309	-888.4307	-901.6269	-915.4664	-928.5575	-941.1606	-952.9561	-965.1981	-977.5036	-991.5992	-1003.8258	-1015.6170	-1028.7190	-1041.4731	-1053.0498	-1065.1518	-1076.6760	-1088.2614	-1082.1185	-1090.1763	-1103.0048	-1134.8374	-1145.9043	-1157.8508	-1166.0902	-1180.6760	-1192.2177	-1203.0635	-1212.3817	-1212.9091	-1217.8396	-1247.9850	-1258.8636	-1270.3287	-1277.7278	-1281.3759	-1302.7939	-1302.9646	-1298.9992	-1321.1153	-1344.8071	-1354.2895	-1365.3388	-1376.0598	-1385.5706	-1396.4602	-1406.8946	-1401.9334	-1398.9440	-1433.4969	-1447.2489	-1457.9875	-1463.2397	-1472.0568	-1487.1328	-1496.5123	-1504.6423	-1516.1752	-1525.9662	-1531.8705	-1540.4819	-1553.3936	-1563.3968	-1573.8115	-1583.3595	-1591.9534	-1596.5841	-1595.1026	-1611.2268	-1628.8260	-1637.9627	-1646.7404	-1657.5293	-1666.5324	-1673.9490	-1682.0789	-1677.5511	-1700.3916	-1711.0098	-1711.3927	-1714.7082	-1717.1592	-1745.3897	-1756.5047	-1764.6587	-1772.7033	-1782.3061	-1789.7008	-1798.9862	-1807.7442	-1816.9049	-1824.6191	-1831.7314	-1838.9488	-1849.8406	-1856.2592	-1864.0478	-1874.9483	-1884.8202	-1891.3723	-1897.6158	-1907.4790	-1917.5173	-1924.6253	-1933.2892	-1941.7496	-1950.4836	-1957.8388	-1967.1658	-1974.5911	-1979.0774	-1973.2037	-1977.2194	-1988.8465	-2011.3456	-2022.4518	-2030.1659	-2036.6896	-2046.2727	-2052.4265	-2058.0047	-2068.8571	-2076.2868
-760.4173	-810.3481	-830.1467	-843.3472	-856.8454	-872.2430	-885.6536	-898.5806	-912.5711	-924.9948	-938.1625	-950.7108	-962.3707	-974.8206	-988.9402	-1000.8693	-1012.4110	-1025.6093	-1038.3546	-1049.6950	-1061.1098	-1072.8944	-1085.5478	-1087.9200	-1098.0677	-1104.5235	-1131.7627	-1142.4334	-1154.8330	-1164.2848	-1177.0541	-1189.0467	-1199.5642	-1210.1911	-1216.8548	-1222.1814	-1244.3194	-1256.4651	-1266.5362	-1276.0033	-1283.7941	-1299.4347	-1305.0261	-1304.3980	-1315.1650	-1341.6557	-1351.7159	-1362.6361	-1372.5671	-1382.9577	-1393.7553	-1403.9949	-1407.5708	-1399.2876	-1417.5346	-1435.3483	-1454.3219	-1462.7320	-1471.8489	-1483.3709	-1493.3041	-1501.6223	-1512.4265	-1522.3575	-1525.1433	-1536.7463	-1549.9797	-1560.9589	-1570.3232	-1579.2978	-1588.2266	-1596.0261	-1600.8121	-1612.9622	-1626.4998	-1634.5334	-1643.1842	-1653.6295	-1662.6436	-1671.1740	-1679.7592	-1682.6129	-1697.6670	-1706.9612	-1699.4943	-1702.0066	-1716.3364	-1742.7461	-1752.6443	-1761.5884	-1769.8693	-1778.6821	-1774.3644	-1795.5373	-1804.0349	-1813.7908	-1821.7588	-1829.1973	-1837.2156	-1846.9037	-1839.9905	-1846.5164	-1867.2056	-1881.5485	-1888.4967	-1895.8761	-1906.2513	-1914.2609	-1921.7716	-1930.1948	-1935.1231	-1945.3167	-1955.6373	-1963.3996	-1971.1050	-1977.2741	-1979.2787	-1984.1151	-1993.2868	-2008.8376	-2018.7446	-2027.2137	-2020.5369	-2038.1252	-2050.1921	-2055.9564	-2064.8829	-2072.8816
-757.4957	-806.7832	-825.5839	-840.1368	-854.4731	-869.0458	-882.7693	-894.7553	-908.8858	-921.3883	-934.4618	-948.0235	-960.1232	-972.3105	-985.6489	-997.8274	-1009.3078	-1022.7359	-1034.8663	-1046.4364	-1057.6652	-1069.5549	-1082.0441	-1077.8905	-1100.2080	-1109.7057	-1128.6223	-1139.9912	-1151.4891	-1162.2408	-1173.4848	-1185.9194	-1196.7674	-1207.4468	-1217.2291	-1224.8272	-1240.7939	-1248.7510	-1261.1593	-1273.2328	-1283.9188	-1296.0142	-1304.6037	-1309.7005	-1320.0933	-1338.2309	-1349.0219	-1359.2331	-1369.5712	-1380.0033	-1390.5734	-1400.6182	-1408.3717	-1398.9156	-1412.1424	-1427.7677	-1450.6935	-1460.6923	-1469.9121	-1479.4339	-1490.7502	-1498.9305	-1508.8856	-1519.4972	-1524.6663	-1533.1573	-1546.7058	-1558.3657	-1567.3776	-1575.5688	-1585.4582	-1593.9646	-1600.7684	-1612.4151	-1623.1734	-1631.0495	-1641.2190	-1650.3994	-1659.5864	-1668.5348	-1676.5641	-1683.2891	-1695.0869	-1704.5014	-1703.4663	-1694.7761	-1704.4576	-1739.0193	-1748.7818	-1758.2248	-1766.2607	-1775.2682	-1762.3609	-1792.3531	-1800.7982	-1810.3134	-1818.3952	-1826.5646	-1835.3467	-1843.5992	-1834.7405	-1835.3708	-1854.8805	-1877.4934	-1885.2688	-1893.2149	-1903.1219	-1910.6194	-1918.3817	-1927.3717	-1918.1125	-1928.6957	-1951.7769	-1960.4146	-1967.4897	-1974.6546	-1980.2263	-1986.2882	-1995.1382	-2006.5989	-2015.3416	-2023.2921	-2022.3927	-2019.6528	-2044.0339	-2053.3938	-2061.9176	-2070.0563
-754.2569	-803.6866	-822.3122	-834.1471	-851.4728	-865.7653	-879.0818	-891.4026	-905.2487	-918.3726	-931.2580	-944.3579	-957.5037	-969.2379	-981.9789	-994.6411	-1006.3009	-1019.7881	-1031.8025	-1043.1691	-1055.0632	-1066.5720	-1078.5580	-1075.2250	-1091.7826	-1110.5548	-1125.6089	-1136.3912	-1148.3859	-1151.5329	-1168.6047	-1182.7550	-1193.8612	-1204.7004	-1215.3536	-1225.2912	-1237.3165	-1244.2560	-1246.1818	-1262.3673	-1281.0761	-1292.8913	-1302.8026	-1311.5322	-1321.9972	-1334.8673	-1346.1901	-1355.6682	-1366.7765	-1376.5981	-1387.2141	-1397.1627	-1406.9624	-1398.5917	-1403.7914	-1431.6893	-1447.6210	-1457.7030	-1466.8856	-1476.7094	-1487.0781	-1495.8733	-1506.0494	-1516.0155	-1522.9834	-1529.8703	-1541.8869	-1555.1093	-1564.2131	-1572.3190	-1583.1604	-1590.8330	-1598.8666	-1610.1611	-1619.0854	-1628.4825	-1638.8227	-1647.1256	-1657.1091	-1665.5805	-1673.2136	-1681.8382	-1692.2332	-1701.7549	-1705.3636	-1704.3964	-1706.9940	-1736.6033	-1745.7990	-1754.8087	-1762.7023	-1765.3831	-1768.4316	-1789.6351	-1797.5243	-1806.6500	-1815.8764	-1823.2776	-1832.4142	-1840.5267	-1839.9336	-1842.3299	-1858.6840	-1873.9700	-1882.0497	-1890.7924	-1900.1041	-1907.3171	-1914.6001	-1923.4763	-1920.3688	-1916.5588	-1940.3928	-1957.6944	-1964.6601	-1971.7725	-1978.9723	-1986.2860	-1994.6830	-2003.8765	-2012.9869	-2019.6550	-2023.9289	-2009.4810	-2038.6088	-2051.4483	-2059.6723	-2066.8503
-752.4602	-801.3778	-819.3797	-814.9263	-840.5460	-861.9859	-875.5716	-888.7809	-901.5459	-915.1250	-928.5641	-940.5456	-950.1965	-965.7649	-978.7050	-991.2249	-1003.3312	-1016.6105	-1029.1786	-1039.6721	-1052.0147	-1063.5695	-1075.5861	-1080.4269	-1090.9488	-1108.9310	-1122.6370	-1133.1239	-1144.8297	-1139.2296	-1152.1763	-1174.5791	-1190.2787	-1201.4615	-1212.7669	-1223.3894	-1234.6532	-1244.1094	-1239.7128	-1248.3724	-1267.8537	-1290.0879	-1300.2772	-1311.3374	-1321.0912	-1331.3986	-1342.9228	-1352.9392	-1363.3517	-1373.2477	-1384.4130	-1394.0201	-1404.4567	-1406.1374	-1398.8106	-1432.0810	-1444.1742	-1454.6764	-1463.6927	-1473.9629	-1483.1630	-1492.5053	-1502.8762	-1512.2186	-1521.1517	-1527.9226	-1524.9639	-1539.2236	-1554.0063	-1569.5922	-1579.6458	-1588.0778	-1594.2600	-1605.3444	-1616.2536	-1625.7491	-1635.1703	-1643.7248	-1653.5420	-1662.2803	-1670.4453	-1679.6016	-1689.4670	-1697.9602	-1704.2760	-1709.2700	-1715.5573	-1733.7189	-1742.6936	-1751.3641	-1759.9427	-1745.4817	-1758.1898	-1785.9739	-1794.5393	-1803.3696	-1813.3378	-1819.8090	-1828.3919	-1837.6905	-1841.6187	-1845.9977	-1858.9247	-1871.1010	-1878.9158	-1888.2801	-1897.3379	-1904.1898	-1911.6523	-1919.3884	-1923.4238	-1924.1219	-1939.2614	-1954.5299	-1961.8830	-1968.7634	-1977.2129	-1984.6710	-1992.2998	-2000.4297	-2010.0019	-2016.4927	-2023.3840	-2006.6448	-2025.3755	-2048.0431	-2056.5254	-2063.5633
-749.9129	-798.7583	-816.0358	-813.2565	-820.8262	-846.9231	-873.1600	-885.7324	-898.4821	-911.9124	-925.6119	-938.1384	-935.5385	-959.9525	-975.7353	-987.8898	-999.9567	-1013.7744	-1025.9069	-1036.6477	-1048.1259	-1060.4883	-1072.6799	-1080.8427	-1092.1174	-1106.4099	-1118.9058	-1131.1259	-1141.6237	-1143.4554	-1148.2677	-1163.7092	-1186.8035	-1198.4656	-1209.7775	-1220.0871	-1231.5872	-1242.1310	-1245.8382	-1251.7951	-1268.7028	-1285.8380	-1297.3360	-1308.2802	-1318.6161	-1328.4487	-1339.1960	-1350.5057	-1359.9750	-1370.1292	-1381.9488	-1390.8994	-1401.4760	-1408.1595	-1408.3871	-1430.5448	-1441.2527	-1451.4660	-1460.2678	-1470.4177	-1480.0751	-1488.9995	-1498.9984	-1508.7193	-1518.2783	-1526.3907	-1526.5396	-1529.1897	-1536.5012	-1562.9679	-1575.1727	-1585.5217	-1579.3635	-1585.4013	-1609.5352	-1621.6940	-1631.0254	-1641.1315	-1649.3359	-1658.6322	-1668.1497	-1676.6801	-1685.9021	-1694.6776	-1702.0876	-1709.6464	-1717.8945	-1729.9133	-1730.9637	-1745.5101	-1757.2991	-1743.3480	-1743.6718	-1781.3148	-1792.0467	-1799.7784	-1809.6635	-1817.3054	-1825.6280	-1834.4779	-1835.9726	-1838.1326	-1857.3884	-1868.1882	-1875.5544	-1884.7764	-1894.4667	-1900.9007	-1909.0788	-1916.3618	-1923.5617	-1927.8182	-1939.0185	-1950.9278	-1958.4012	-1965.9185	-1974.4292	-1981.8479	-1988.8290	-1996.7729	-2005.5091	-2013.0284	-2021.8499	-2016.1404	-2013.6106	-2040.8257	-2052.7328	-2060.7687
-747.1817	-795.4034	-812.2936	-819.3578	-817.5436	-831.1096	-860.2440	-881.8743	-896.0464	-909.0172	-922.5284	-934.9564	-937.4403	-944.3907	-972.5315	-984.7035	-996.9411	-1010.1416	-1021.9765	-1034.1222	-1044.8389	-1057.5930	-1069.2507	-1079.4531	-1091.9358	-1103.9173	-1115.2271	-1128.5633	-1138.1288	-1145.2871	-1153.7125	-1165.8954	-1183.9345	-1195.9949	-1206.9545	-1217.1656	-1227.1185	-1239.3408	-1247.3088	-1255.5022	-1269.6810	-1283.2185	-1294.0337	-1304.5074	-1315.6355	-1325.6190	-1335.4100	-1347.4616	-1357.2022	-1366.8159	-1378.4408	-1387.9429	-1398.2569	-1407.0390	-1412.5516	-1427.7086	-1438.6747	-1448.2140	-1457.0749	-1467.3955	-1477.3068	-1486.1283	-1495.8427	-1506.0122	-1514.5142	-1523.8916	-1527.4302	-1535.2932	-1531.7545	-1553.5315	-1572.0936	-1582.3397	-1581.7160	-1579.7355	-1593.5160	-1618.0525	-1627.6749	-1638.3303	-1646.6025	-1655.2030	-1665.2391	-1673.6885	-1681.9454	-1692.1412	-1699.4768	-1708.2808	-1717.5028	-1726.5015	-1720.0501	-1730.9462	-1753.9640	-1751.9966	-1742.1509	-1778.6777	-1788.6700	-1796.6008	-1805.2122	-1814.8041	-1822.4832	-1830.5913	-1832.0728	-1827.1402	-1855.6815	-1865.6212	-1872.5410	-1881.1765	-1891.2410	-1897.5983	-1905.7830	-1914.2193	-1921.6753	-1927.6343	-1937.3137	-1947.0478	-1954.8363	-1962.8612	-1971.3063	-1978.7863	-1986.3911	-1994.0855	-2001.7909	-2009.9493	-2018.8518	-2021.2219	-2019.9460	-2038.5388	-2049.5027	-2057.6830
-744.8861	-791.5650	-809.0832	-820.5024	-826.4089	-837.4319	-854.2236	-879.3751	-893.1555	-905.6951	-919.4253	-922.0864	-938.8015	-945.0757	-969.8529	-981.8279	-993.8073	-1006.6051	-1018.8909	-1031.2510	-1042.5564	-1054.4176	-1065.6354	-1077.5798	-1089.4344	-1101.4641	-1112.2049	-1124.7182	-1134.7565	-1144.5256	-1154.7455	-1167.0290	-1181.3719	-1192.8195	-1204.0854	-1214.2156	-1218.6800	-1235.3469	-1245.5056	-1255.7452	-1268.3067	-1280.1569	-1290.5694	-1301.6581	-1312.4360	-1322.4677	-1332.0005	-1343.9798	-1354.1012	-1363.3736	-1374.0311	-1384.9382	-1394.8364	-1404.7346	-1413.1097	-1424.7630	-1435.2433	-1445.3888	-1453.6829	-1464.4717	-1474.0220	-1483.3403	-1493.2757	-1503.0491	-1510.8049	-1521.2458	-1515.0416	-1526.9926	-1536.7157	-1555.9628	-1570.1262	-1578.4969	-1583.6966	-1587.5175	-1597.0131	-1611.3559	-1624.3704	-1634.5159	-1644.5126	-1652.1239	-1661.5144	-1670.3359	-1678.6278	-1685.0967	-1696.0410	-1705.8079	-1715.6755	-1724.0636	-1723.7398	-1728.4711	-1750.4406	-1754.9706	-1753.4300	-1776.2748	-1784.6302	-1793.7931	-1802.3761	-1811.0575	-1818.8001	-1827.1752	-1832.6353	-1833.7557	-1852.5958	-1862.1635	-1869.3000	-1878.0908	-1887.8840	-1894.5017	-1902.6448	-1911.4598	-1918.4868	-1925.9843	-1934.9393	-1944.1525	-1951.5340	-1959.5917	-1967.8815	-1975.7160	-1984.0604	-1990.8489	-1999.5325	-2006.9753	-2015.0549	-2021.3488	-2024.2222	-2037.4336	-2046.3514	-2053.8643
-742.1878	-788.2801	-806.8860	-819.5548	-829.5799	-842.4850	-857.6879	-877.2239	-890.2406	-902.4979	-916.5934	-907.5356	-923.3928	-938.3288	-966.7891	-978.5387	-990.5903	-1003.7492	-1015.7352	-1027.7780	-1039.4291	-1050.9424	-1062.6417	-1074.9121	-1080.0943	-1098.5163	-1109.8282	-1120.8097	-1132.1391	-1142.6238	-1153.3711	-1165.6481	-1177.5093	-1188.6703	-1201.0260	-1210.6594	-1218.4918	-1221.9779	-1244.0765	-1254.3905	-1265.5668	-1276.6927	-1287.7288	-1298.9466	-1308.8120	-1319.5287	-1329.3875	-1340.6031	-1350.4926	-1360.4498	-1370.8623	-1381.6840	-1391.8448	-1402.1194	-1412.1292	-1421.9136	-1431.5317	-1442.7255	-1450.5709	-1461.2985	-1470.4986	-1479.2414	-1490.3322	-1499.4032	-1507.5638	-1518.8560	-1506.4039	-1518.1448	-1528.8877	-1555.9409	-1567.2638	-1575.4440	-1583.4011	-1590.3471	-1598.9279	-1601.5518	-1607.6991	-1630.5658	-1641.2168	-1648.9638	-1658.1048	-1667.1517	-1675.3955	-1673.3012	-1679.2799	-1703.0899	-1713.1719	-1721.1903	-1725.2126	-1733.0208	-1747.1711	-1754.2266	-1758.2904	-1772.7931	-1773.3555	-1788.4030	-1799.8178	-1807.5188	-1815.6269	-1824.5819	-1831.4863	-1836.3818	-1848.7836	-1858.1128	-1866.1837	-1874.1932	-1884.5357	-1892.1864	-1899.1565	-1907.3521	-1915.7906	-1923.4545	-1931.8142	-1941.6467	-1948.3192	-1956.4886	-1964.6623	-1972.3130	-1980.7078	-1987.2905	-1996.8298	-2004.3120	-2011.7723	-2019.0247	-2024.5176	-2034.8207	-2042.8915	-2050.6298
-738.6885	-785.1288	-803.6384	-817.5896	-829.7265	-843.2028	-858.6464	-873.5364	-887.0871	-899.9046	-913.1139	-913.9104	-920.3072	-920.7536	-955.2759	-975.5187	-987.0735	-1000.6570	-1012.7961	-1023.9964	-1035.5163	-1048.1916	-1059.9018	-1071.6579	-1062.2149	-1095.0630	-1107.1584	-1117.7350	-1129.2067	-1140.4682	-1150.3642	-1162.9323	-1173.5417	-1185.5386	-1198.1920	-1207.3703	-1217.1700	-1222.5206	-1241.5774	-1251.7425	-1262.7503	-1274.0841	-1284.8708	-1295.6837	-1296.5328	-1314.5369	-1325.9954	-1337.1892	-1347.4353	-1357.6093	-1367.8139	-1377.8871	-1383.7193	-1396.6659	-1409.7548	-1419.1103	-1428.4067	-1439.3641	-1448.3650	-1457.7621	-1467.6997	-1476.0506	-1487.1393	-1496.7968	-1504.9705	-1516.3612	-1506.0757	-1525.4869	-1519.2696	-1553.4155	-1563.5347	-1573.0215	-1581.6416	-1590.1633	-1597.9825	-1603.4842	-1604.4208	-1625.4975	-1637.1201	-1645.7775	-1655.0017	-1664.5256	-1672.8263	-1675.2751	-1673.6929	-1700.1377	-1710.0337	-1717.8135	-1724.3656	-1732.4956	-1744.3678	-1751.9287	-1758.3167	-1769.0640	-1755.0647	-1771.2546	-1796.3601	-1804.4091	-1812.9483	-1822.0171	-1829.0528	-1835.7341	-1845.3718	-1854.8455	-1863.3956	-1870.8340	-1881.1633	-1888.7790	-1895.6441	-1903.6230	-1913.1208	-1920.3010	-1928.6147	-1938.6399	-1944.2006	-1945.5750	-1953.2475	-1968.6299	-1977.0050	-1984.7585	-1993.1861	-2001.1979	-2009.1265	-2016.7881	-2023.5547	-2031.4680	-2039.7183	-2047.6338
-735.3555	-782.2379	-799.6139	-815.1539	-828.7768	-842.1523	-856.3792	-869.5994	-883.5484	-897.4886	-910.1858	-917.2959	-927.0694	-921.0534	-953.5798	-972.0785	-983.5173	-997.4072	-1001.2895	-1018.0024	-1032.6735	-1045.2744	-1056.4441	-1068.9618	-1052.1088	-1086.1233	-1103.4731	-1114.6975	-1126.1407	-1137.6342	-1147.5062	-1160.2427	-1171.0141	-1182.9563	-1195.1217	-1204.7266	-1214.9487	-1223.2012	-1238.1788	-1248.3811	-1260.5378	-1271.3267	-1281.2839	-1292.3464	-1284.9867	-1295.8128	-1312.6352	-1334.2151	-1344.1834	-1354.4952	-1364.8617	-1371.5276	-1369.0853	-1379.8808	-1405.4918	-1415.8933	-1425.5508	-1435.7751	-1445.7936	-1454.3875	-1465.2136	-1473.6784	-1483.7954	-1493.9978	-1501.3378	-1513.9408	-1511.9581	-1528.6229	-1519.8189	-1550.3933	-1560.3834	-1570.3035	-1578.7901	-1588.9619	-1595.2186	-1603.2938	-1609.3470	-1623.3922	-1633.9294	-1643.0573	-1652.0407	-1661.9871	-1670.0864	-1674.4742	-1672.8788	-1696.9579	-1706.0377	-1715.4851	-1722.9869	-1730.4648	-1741.1880	-1749.6944	-1757.1087	-1766.5714	-1759.9755	-1760.8137	-1793.0687	-1801.1680	-1810.1843	-1818.4981	-1825.7965	-1833.8739	-1843.5773	-1852.7008	-1860.0670	-1868.7485	-1877.7275	-1884.2009	-1892.6766	-1900.5002	-1910.2036	-1917.6026	-1924.5246	-1934.2849	-1940.9355	-1938.1737	-1937.2437	-1963.7082	-1973.1818	-1982.2572	-1989.4614	-1997.5126	-2005.6907	-2014.2452	-2021.3225	-2028.7194	-2036.3591	-2044.2790
-733.1518	-779.2748	-796.5567	-812.1995	-826.7459	-840.0099	-853.1294	-867.0499	-880.4780	-894.0725	-907.5706	-916.7072	-928.3562	-931.9955	-954.3961	-969.1417	-980.2347	-993.8904	-993.9408	-1003.4932	-1030.0627	-1041.9108	-1053.0980	-1065.8324	-1057.2428	-1068.4847	-1090.6359	-1111.2879	-1123.2585	-1134.5114	-1145.1996	-1157.5160	-1168.9526	-1179.4373	-1191.1541	-1202.1750	-1212.6421	-1221.9801	-1235.0843	-1245.7419	-1257.7060	-1268.0462	-1277.2704	-1289.1579	-1290.4556	-1297.3841	-1295.0928	-1331.5978	-1340.7038	-1351.2344	-1362.2728	-1370.3305	-1370.2977	-1378.5458	-1399.0513	-1412.2759	-1422.5220	-1432.6544	-1442.3928	-1451.2800	-1461.5174	-1470.6081	-1480.6594	-1490.3738	-1498.2280	-1511.1309	-1513.8489	-1527.5397	-1528.4238	-1547.6315	-1557.5581	-1566.6882	-1575.0633	-1586.1454	-1592.8288	-1596.7986	-1607.5875	-1621.0944	-1630.9313	-1640.3108	-1649.3205	-1658.3850	-1666.7491	-1674.1919	-1658.9649	-1687.8870	-1702.9148	-1712.2331	-1720.8270	-1728.5565	-1737.8375	-1747.2937	-1754.9706	-1764.0350	-1764.3108	-1762.7264	-1790.4229	-1798.1130	-1806.4465	-1815.3862	-1823.0697	-1831.6330	-1841.6012	-1849.7224	-1856.2767	-1866.1355	-1874.3136	-1880.9445	-1889.7354	-1898.0689	-1906.7415	-1914.6789	-1909.6040	-1916.9352	-1939.0666	-1940.8173	-1936.2436	-1951.6128	-1969.7460	-1978.3837	-1986.9075	-1994.0330	-2002.3796	-2011.2383	-2018.1909	-2026.2596	-2033.1093	-2041.3750
-731.4120	-776.6071	-794.1385	-808.8556	-824.0257	-837.2000	-850.3283	-864.5136	-877.6878	-890.5054	-903.9378	-915.1754	-926.6426	-935.9434	-952.7088	-966.3536	-977.2475	-990.8595	-997.5035	-1003.3860	-1026.9245	-1038.7573	-1050.2727	-1062.1755	-1064.3771	-1070.6556	-1073.8507	-1106.1342	-1120.1138	-1131.5373	-1142.5822	-1154.6798	-1165.5628	-1175.8943	-1187.4491	-1192.1455	-1209.6024	-1220.2338	-1232.5764	-1243.0327	-1254.2942	-1264.7133	-1274.4649	-1285.9956	-1292.3858	-1300.8987	-1297.9772	-1328.3589	-1337.8742	-1347.9058	-1359.0493	-1368.2909	-1373.5103	-1383.4260	-1397.6463	-1409.1180	-1419.4845	-1429.7788	-1438.4099	-1448.1068	-1457.4601	-1466.8571	-1477.5213	-1486.7892	-1495.6085	-1508.4523	-1513.5841	-1524.5962	-1530.6844	-1544.7406	-1554.1092	-1563.5697	-1571.8901	-1582.2785	-1590.9796	-1583.5084	-1591.4742	-1618.0744	-1624.1363	-1636.8575	-1646.1101	-1654.0978	-1663.3789	-1672.5724	-1660.7681	-1673.9511	-1700.4266	-1708.0379	-1717.7282	-1726.2455	-1734.1150	-1743.9957	-1751.7668	-1760.2819	-1765.6194	-1752.3598	-1780.1199	-1793.8916	-1802.5095	-1812.6266	-1820.7325	-1828.3000	-1837.2638	-1845.5863	-1852.9262	-1862.6669	-1871.7685	-1878.5920	-1886.5928	-1895.2896	-1903.2817	-1911.3416	-1901.4237	-1902.1065	-1931.9324	-1940.1521	-1942.4805	-1953.5386	-1966.5553	-1974.1907	-1984.3865	-1991.0524	-1999.8476	-2007.9382	-2015.1228	-2022.6553	-2030.2228	-2038.3221
-727.7924	-773.7381	-791.0266	-805.8575	-820.5702	-834.0289	-847.6693	-860.8983	-874.6043	-887.1527	-900.6771	-913.1992	-924.3733	-935.6414	-950.5467	-962.8959	-974.7899	-987.5331	-996.8514	-992.7809	-1022.8235	-1035.9014	-1047.3206	-1059.1424	-1066.1672	-1075.4417	-1078.9760	-1099.7046	-1116.5992	-1128.3116	-1139.2252	-1151.6795	-1161.4901	-1173.4870	-1184.5867	-1179.5468	-1206.4074	-1217.2641	-1228.9327	-1239.7325	-1251.0816	-1261.2337	-1272.2480	-1282.8465	-1287.9302	-1300.0846	-1305.1180	-1324.7502	-1334.9548	-1344.7808	-1355.2392	-1365.4241	-1372.7903	-1383.8943	-1395.7730	-1406.1286	-1416.4645	-1426.0147	-1434.8559	-1444.6031	-1454.9959	-1463.6664	-1474.3065	-1483.8108	-1492.2712	-1505.8262	-1511.6211	-1522.3465	-1530.7873	-1541.7534	-1550.9885	-1560.7795	-1569.1130	-1578.2387	-1588.1040	-1587.5416	-1593.9230	-1615.1003	-1609.8394	-1632.6645	-1642.3942	-1651.2310	-1659.5317	-1669.5984	-1661.1817	-1670.9465	-1697.1046	-1705.1820	-1714.1326	-1722.7615	-1730.5698	-1740.5096	-1748.8956	-1757.1722	-1765.1467	-1760.7809	-1763.2406	-1790.4011	-1799.7762	-1808.7181	-1817.7978	-1824.8379	-1833.2852	-1842.2708	-1850.4052	-1858.5767	-1869.5516	-1875.2809	-1883.0476	-1891.5693	-1900.2004	-1908.2669	-1907.0786	-1903.2313	-1920.9028	-1938.7011	-1943.9533	-1954.0463	-1963.8679	-1971.4551	-1980.6902	-1988.1265	-1996.7510	-2004.3667	-2011.7679	-2018.4251	-2027.1481	-2035.3940
-723.6869	-770.0725	-787.5426	-802.4239	-816.6092	-831.2825	-844.8331	-857.3093	-871.5165	-883.8219	-897.7534	-909.8488	-921.9813	-934.0570	-947.8746	-959.0137	-971.6933	-984.4255	-995.0175	-985.4453	-1010.2072	-1032.6932	-1043.9832	-1046.3555	-1064.0160	-1076.5556	-1083.7358	-1099.1181	-1113.0846	-1125.0071	-1136.0170	-1148.0336	-1158.0368	-1170.9835	-1181.2559	-1182.7812	-1203.2976	-1214.2112	-1224.8579	-1226.9325	-1247.6677	-1258.0846	-1269.2630	-1279.2137	-1268.8931	-1284.3499	-1306.9387	-1322.0891	-1331.5715	-1341.6492	-1352.3636	-1362.5376	-1371.5013	-1382.0407	-1393.3198	-1401.5439	-1406.3037	-1416.5061	-1431.3960	-1441.8786	-1451.9759	-1460.9090	-1467.5049	-1478.4229	-1489.0564	-1502.8894	-1508.9403	-1520.0465	-1528.8330	-1539.0967	-1547.6249	-1556.9695	-1566.4628	-1575.4134	-1583.9351	-1589.4543	-1597.6236	-1612.3626	-1613.6691	-1629.0339	-1638.8665	-1648.6662	-1655.9055	-1666.6309	-1654.3561	-1656.1484	-1690.8129	-1702.9586	-1710.6902	-1719.5643	-1727.8474	-1737.4567	-1746.1907	-1753.9421	-1762.3390	-1765.7617	-1765.8864	-1787.8691	-1797.5528	-1804.4572	-1814.3139	-1821.6954	-1831.0946	-1839.6163	-1847.2429	-1845.4244	-1861.3341	-1871.1645	-1879.2726	-1888.4158	-1897.0184	-1905.3650	-1909.2276	-1911.1906	-1923.5420	-1936.7425	-1943.3253	-1952.8427	-1961.2462	-1968.8838	-1976.3988	-1985.1721	-1993.0767	-2000.9572	-2009.3103	-2015.3416	-2024.0187	-2032.6257
-721.7545	-766.9365	-784.3716	-799.4039	-813.3878	-828.6039	-841.8000	-854.5410	-868.6584	-881.3490	-894.6874	-906.7631	-918.7447	-931.9211	-944.9268	-955.6851	-966.4893	-982.0117	-993.1901	-993.7898	-1003.7383	-1029.0298	-1040.6875	-1033.9406	-1048.0865	-1067.6181	-1084.3135	-1097.3674	-1109.9223	-1121.6304	-1133.1261	-1144.7422	-1155.2291	-1166.8277	-1178.0302	-1174.3011	-1199.4460	-1211.9200	-1221.8313	-1209.2764	-1231.7733	-1254.8216	-1265.6105	-1276.1499	-1265.8162	-1275.7429	-1302.4941	-1319.3120	-1328.4705	-1338.6882	-1349.6325	-1359.7714	-1369.4727	-1379.8195	-1390.8360	-1398.7165	-1393.4818	-1399.8501	-1428.2447	-1439.1518	-1448.3147	-1457.5104	-1464.5768	-1460.6639	-1478.4995	-1499.7293	-1506.3098	-1516.4006	-1525.4191	-1534.3106	-1540.0158	-1553.1769	-1563.5281	-1572.5356	-1580.1426	-1589.2923	-1598.2539	-1608.9312	-1615.1091	-1625.7885	-1635.7436	-1645.6462	-1653.4588	-1663.1754	-1662.0505	-1653.8724	-1689.5983	-1699.8510	-1707.2807	-1717.1198	-1724.7858	-1734.4958	-1742.9650	-1750.6901	-1750.5566	-1766.1162	-1770.5587	-1784.7199	-1794.4365	-1801.6298	-1810.3047	-1818.8286	-1828.4751	-1836.2768	-1843.9888	-1833.7886	-1845.1508	-1858.2638	-1875.7755	-1885.4286	-1894.3092	-1902.1634	-1908.3259	-1914.0202	-1923.6361	-1933.6175	-1941.4082	-1949.5907	-1958.1561	-1965.5289	-1973.3175	-1980.6640	-1990.1989	-1997.3769	-2006.7346	-2013.1335	-2016.9457	-2029.0279
-718.7827	-764.1397	-781.2225	-797.1191	-810.9149	-825.0214	-838.7931	-845.8245	-864.0606	-878.9330	-890.8446	-904.0166	-915.9150	-928.8004	-941.5786	-953.2319	-957.0507	-979.4381	-990.3802	-996.9892	-1007.9926	-1025.7537	-1037.9082	-1039.2978	-1043.6900	-1058.5931	-1082.6022	-1095.3344	-1106.7141	-1118.4747	-1129.6618	-1142.0439	-1152.2922	-1163.0177	-1175.4369	-1175.0736	-1182.9891	-1209.0685	-1219.7873	-1212.5612	-1228.9743	-1251.4493	-1262.5555	-1273.5085	-1273.5785	-1282.6670	-1296.1608	-1315.5655	-1324.9800	-1336.0403	-1346.4702	-1356.7339	-1357.7537	-1373.1033	-1388.2121	-1396.0444	-1398.0205	-1394.4950	-1425.4370	-1435.8101	-1445.6930	-1453.6675	-1462.6532	-1449.7459	-1462.7779	-1496.2869	-1503.5021	-1512.7110	-1522.4078	-1526.3667	-1520.2632	-1549.5354	-1560.0223	-1569.4150	-1577.3130	-1587.2790	-1594.2272	-1605.5216	-1613.7654	-1622.6919	-1632.1152	-1642.5934	-1650.6008	-1659.7680	-1664.8517	-1664.1974	-1687.9067	-1695.8003	-1704.5145	-1714.0757	-1721.9081	-1731.2985	-1739.4044	-1747.5453	-1745.9587	-1763.8031	-1771.9549	-1781.7612	-1790.5411	-1799.3539	-1806.8689	-1816.2222	-1824.9911	-1832.4886	-1840.7433	-1839.4040	-1849.2628	-1848.4662	-1873.3135	-1882.4479	-1891.7509	-1898.4059	-1905.8093	-1914.2084	-1921.7978	-1930.4639	-1939.1016	-1945.7019	-1955.1930	-1953.8384	-1970.4156	-1964.4610	-1985.6558	-1994.0899	-2002.9333	-2010.0675	-2012.8271	-2023.9246
-715.1083	-760.8615	-777.9289	-794.1298	-807.8008	-820.9751	-835.5455	-834.0946	-844.8704	-872.5472	-887.3825	-900.8018	-913.5669	-925.1042	-938.0990	-950.4745	-951.5709	-974.9256	-986.8087	-996.5953	-1008.2027	-1023.2633	-1034.5621	-1042.0355	-1049.5965	-1062.7095	-1081.0703	-1092.6973	-1103.4643	-1115.8989	-1126.1648	-1139.1005	-1149.1737	-1160.4682	-1172.6926	-1177.3802	-1169.9309	-1196.8527	-1216.9511	-1218.6340	-1232.5392	-1248.7028	-1259.6011	-1270.4250	-1275.8217	-1285.6980	-1297.1500	-1311.6832	-1321.6580	-1332.6504	-1343.5443	-1353.2718	-1357.5217	-1356.1802	-1377.8390	-1393.8297	-1399.6815	-1402.7453	-1422.9882	-1432.4968	-1443.0669	-1450.2208	-1460.6245	-1446.6449	-1453.2736	-1491.3936	-1500.2917	-1510.4547	-1520.2916	-1525.6576	-1519.4819	-1535.5602	-1554.1639	-1566.8655	-1574.6825	-1577.9104	-1578.1314	-1602.5782	-1611.4632	-1620.2890	-1628.8129	-1639.2276	-1647.3006	-1657.0194	-1663.5080	-1668.9419	-1684.4818	-1678.8466	-1701.2057	-1710.0819	-1719.3257	-1728.1844	-1735.9839	-1744.3853	-1731.8128	-1752.4036	-1770.8060	-1778.6865	-1787.2410	-1796.3032	-1804.1246	-1812.7054	-1821.7173	-1829.2454	-1837.3207	-1842.0367	-1851.4534	-1853.6156	-1870.9478	-1879.6140	-1888.1531	-1895.3640	-1903.1963	-1912.0900	-1919.4322	-1927.7241	-1936.7338	-1943.2027	-1951.4027	-1936.2020	-1965.1634	-1965.6077	-1971.2451	-1991.5470	-1998.9394	-2006.3297	-2012.3106	-2020.9724
-712.7667	-758.0603	-774.4450	-790.4073	-804.8464	-818.0863	-832.4817	-837.8521	-836.8017	-853.5146	-882.3141	-897.0947	-909.9232	-922.5941	-935.1775	-947.1328	-954.1007	-963.6422	-970.7348	-992.2097	-1005.9880	-1020.4468	-1028.7431	-1041.9393	-1051.4370	-1063.6615	-1078.8775	-1089.9137	-1100.8317	-1112.7957	-1123.8779	-1135.3386	-1146.4929	-1158.0325	-1169.2897	-1177.3189	-1177.0826	-1194.8131	-1213.1192	-1220.2775	-1232.7252	-1245.8032	-1256.0209	-1267.5626	-1275.6553	-1285.8534	-1296.4365	-1309.1665	-1318.5505	-1329.3941	-1340.4893	-1349.4793	-1357.6421	-1359.1587	-1362.8111	-1390.5602	-1399.4605	-1405.5837	-1419.6596	-1429.4155	-1439.1080	-1448.0915	-1458.6527	-1455.2673	-1456.3659	-1487.4413	-1496.2213	-1507.8417	-1517.3219	-1523.9725	-1526.1500	-1536.4465	-1550.5946	-1563.9811	-1571.7281	-1575.6191	-1572.2752	-1599.7114	-1608.1565	-1617.4397	-1626.2765	-1635.8399	-1644.3988	-1654.0672	-1661.1993	-1669.4146	-1680.6980	-1663.6109	-1684.4818	-1705.7751	-1715.7433	-1724.9434	-1733.1149	-1741.7876	-1722.2166	-1736.9731	-1767.5584	-1775.6862	-1784.6608	-1792.6901	-1801.2840	-1809.0617	-1818.8614	-1826.7834	-1833.7557	-1838.0363	-1850.0682	-1854.6332	-1868.0591	-1876.2197	-1884.3650	-1892.6153	-1900.3995	-1908.7242	-1916.2568	-1924.2685	-1933.6175	-1941.3798	-1947.5073	-1937.0423	-1963.0779	-1967.2140	-1972.5887	-1988.8596	-1995.6809	-2003.0011	-2010.0566	-2019.0028
-711.0794	-755.2789	-771.8605	-787.1947	-802.2138	-809.8295	-828.3566	-839.3337	-844.5443	-848.3652	-870.1181	-894.0987	-906.0562	-920.5567	-932.7877	-944.2506	-953.6783	-962.9747	-959.2982	-974.4332	-1003.6683	-1016.9366	-1026.2855	-1039.2497	-1050.6207	-1061.9457	-1074.7020	-1086.9812	-1097.8883	-1109.3402	-1121.0855	-1131.6555	-1142.2233	-1154.0583	-1165.7576	-1175.1918	-1181.1574	-1195.8351	-1209.4514	-1219.1921	-1230.8125	-1242.7613	-1252.5435	-1263.9911	-1273.8696	-1284.2449	-1294.7624	-1306.6893	-1315.8543	-1326.2187	-1337.6597	-1346.1595	-1356.2503	-1362.2422	-1367.6891	-1386.1068	-1397.3968	-1405.3736	-1415.9108	-1426.6778	-1435.3067	-1445.5463	-1456.4031	-1458.7272	-1464.1303	-1485.0975	-1492.6323	-1504.0186	-1513.2296	-1522.3597	-1527.7804	-1537.7070	-1548.9752	-1560.4950	-1568.2004	-1574.9954	-1578.4728	-1594.8400	-1604.6966	-1614.3913	-1623.3878	-1632.4107	-1641.4291	-1650.8940	-1658.9868	-1667.3049	-1678.2601	-1664.3856	-1676.6495	-1703.2409	-1711.7057	-1721.9124	-1730.1015	-1738.6122	-1727.2806	-1734.4367	-1764.2867	-1772.8259	-1781.8268	-1789.6570	-1797.9839	-1805.7965	-1815.6619	-1823.7240	-1830.4228	-1822.2293	-1834.0555	-1854.0292	-1864.3957	-1872.9634	-1880.9401	-1888.7944	-1897.5239	-1905.8224	-1902.4894	-1911.5954	-1929.2559	-1938.3663	-1944.3494	-1944.0037	-1960.9179	-1966.4065	-1973.6501	-1985.4500	-1992.9366	-2000.1628	-2007.5399	-2016.4577
-707.4160	-752.0203	-769.2978	-784.1528	-798.9793	-800.4477	-819.3863	-837.1825	-847.7547	-855.1625	-871.7682	-891.1269	-902.9793	-917.3616	-929.6189	-931.7920	-944.2681	-963.5875	-966.6972	-970.4438	-998.0178	-1013.1725	-1023.9877	-1022.2129	-1047.9661	-1059.7442	-1071.0714	-1084.0465	-1094.1089	-1106.3465	-1117.3017	-1128.9331	-1124.9042	-1145.0376	-1162.8207	-1172.4432	-1181.4375	-1194.4520	-1206.3592	-1216.6644	-1226.8384	-1239.7807	-1250.0925	-1260.9689	-1271.0247	-1281.8092	-1292.2063	-1302.8727	-1312.6330	-1322.9120	-1334.1473	-1343.3146	-1353.5016	-1362.8462	-1370.0132	-1383.0430	-1394.5038	-1403.4960	-1412.8077	-1423.7760	-1432.5450	-1441.8523	-1453.1292	-1458.6374	-1466.5442	-1482.1060	-1490.4942	-1499.8015	-1509.6691	-1520.1516	-1526.9882	-1536.8098	-1546.4607	-1556.8885	-1565.2066	-1573.9866	-1579.9303	-1592.3824	-1602.0202	-1610.9839	-1619.9608	-1629.6576	-1638.0042	-1647.8828	-1656.7502	-1665.1997	-1675.8791	-1672.5987	-1682.5385	-1701.1291	-1708.5544	-1718.0411	-1715.9687	-1734.3251	-1734.0910	-1741.7810	-1761.1682	-1762.1136	-1777.7520	-1786.9105	-1794.7801	-1802.7634	-1812.1408	-1820.3342	-1827.5122	-1825.0633	-1827.2189	-1852.3376	-1860.7761	-1870.3132	-1877.9880	-1885.1331	-1894.5171	-1903.0037	-1887.0414	-1893.6964	-1913.6175	-1929.0327	-1941.4782	-1945.8113	-1957.8979	-1964.2181	-1972.6281	-1981.9552	-1989.7787	-1996.3418	-2004.7300	-2013.2145
-703.5885	-748.9587	-766.3763	-781.2531	-795.4603	-803.3890	-814.1122	-820.3120	-842.8636	-857.7754	-872.2058	-887.9318	-899.8324	-912.9804	-926.2444	-919.5566	-926.8899	-951.5949	-969.9120	-977.4554	-992.9691	-1010.6274	-1021.8409	-1008.6754	-1033.7524	-1057.6389	-1069.0537	-1080.5232	-1091.2552	-1103.6066	-1113.7915	-1126.2917	-1118.0983	-1136.8026	-1159.8642	-1169.4363	-1180.1529	-1192.0295	-1202.5382	-1211.7471	-1211.7690	-1236.2376	-1247.3723	-1258.2487	-1267.9762	-1278.7060	-1288.8537	-1298.6797	-1309.5211	-1320.1414	-1330.1731	-1340.7125	-1350.1862	-1354.0662	-1367.1902	-1378.9354	-1390.7156	-1400.9815	-1409.6826	-1420.6028	-1430.1180	-1437.7731	-1449.4877	-1457.6329	-1465.4281	-1478.5629	-1488.0563	-1496.6283	-1507.2574	-1516.7661	-1525.1981	-1527.1983	-1530.7719	-1552.8924	-1562.5280	-1571.8441	-1579.1053	-1589.6337	-1599.3415	-1607.1564	-1616.8729	-1626.8039	-1634.5969	-1644.7030	-1654.0256	-1662.3657	-1672.7957	-1675.6844	-1684.3702	-1697.4963	-1706.2193	-1715.1130	-1702.4684	-1720.5337	-1735.4828	-1744.8536	-1758.3276	-1751.0731	-1764.3742	-1783.3062	-1791.6441	-1799.5005	-1808.9304	-1817.5308	-1824.5994	-1827.8667	-1833.5785	-1849.6414	-1857.4978	-1867.8687	-1874.9307	-1881.8965	-1891.5583	-1900.0800	-1891.6940	-1890.3328	-1913.9414	-1925.8201	-1938.7646	-1944.7674	-1954.3111	-1961.7408	-1970.3281	-1978.8826	-1986.5005	-1992.6565	-2001.5874	-2010.1397
-700.9974	-745.8840	-763.5182	-778.0624	-792.3747	-803.3058	-815.4493	-807.7351	-826.1288	-857.0226	-871.0219	-885.1437	-896.9087	-907.4152	-923.1740	-924.1719	-922.1367	-943.9202	-969.4765	-979.7051	-992.9210	-1007.7081	-1019.2257	-1013.2907	-1020.9436	-1054.4701	-1066.7799	-1076.9977	-1088.3183	-1100.1555	-1111.3514	-1122.8012	-1124.5563	-1127.6770	-1156.6122	-1165.9414	-1178.4854	-1189.2874	-1199.8749	-1207.2718	-1197.1307	-1219.9908	-1243.9102	-1255.2177	-1264.9190	-1275.4562	-1286.0569	-1295.8303	-1306.9431	-1317.3053	-1326.9474	-1337.9179	-1347.2953	-1343.9426	-1352.2849	-1364.6013	-1387.1419	-1397.9877	-1406.5247	-1417.3902	-1427.3869	-1434.6787	-1446.5070	-1455.7706	-1463.2419	-1474.9914	-1484.8043	-1494.4377	-1504.2265	-1513.4003	-1522.8980	-1517.2016	-1514.1772	-1547.1719	-1559.0134	-1568.7278	-1577.5121	-1586.4715	-1596.3697	-1604.4274	-1613.9930	-1623.2062	-1631.4478	-1640.8404	-1643.1383	-1647.9987	-1668.6596	-1675.3452	-1683.3788	-1681.9892	-1697.9602	-1711.9289	-1706.2762	-1716.0365	-1735.1129	-1744.6063	-1755.2639	-1755.1216	-1750.9286	-1779.2204	-1788.2214	-1796.2966	-1806.3261	-1814.5196	-1821.6385	-1815.5875	-1824.4265	-1846.5076	-1854.7032	-1864.1397	-1871.7072	-1879.1960	-1888.3851	-1897.1607	-1896.2437	-1900.0778	-1916.2896	-1925.5860	-1935.7337	-1942.5834	-1950.9256	-1959.3685	-1967.7633	-1975.6022	-1983.2748	-1989.7612	-1997.7796	-2006.9031
-699.2730	-742.3716	-759.5506	-774.9352	-789.8602	-801.6951	-815.4712	-814.8212	-827.9933	-855.6439	-868.9035	-882.4170	-893.4159	-902.8830	-920.3969	-926.7302	-930.6431	-949.0980	-968.0628	-979.1143	-991.6692	-1004.1366	-1015.9825	-1020.3046	-1026.3424	-1050.8155	-1063.0575	-1073.7413	-1084.9504	-1096.3848	-1109.0689	-1120.0460	-1126.3136	-1132.9445	-1153.4433	-1163.0746	-1175.9315	-1186.6503	-1196.5639	-1206.5999	-1194.3426	-1204.9499	-1240.2709	-1251.7491	-1262.2623	-1272.4931	-1281.7851	-1292.7075	-1303.9887	-1314.3443	-1324.4657	-1334.9482	-1344.7436	-1347.5710	-1349.0526	-1364.7348	-1384.0935	-1394.8079	-1403.3121	-1414.0397	-1423.4433	-1432.2627	-1443.1982	-1452.6521	-1456.0551	-1471.2318	-1481.1387	-1491.3280	-1500.1495	-1510.4000	-1519.7992	-1521.6944	-1514.6805	-1545.5459	-1554.7832	-1565.5984	-1574.6497	-1583.5215	-1592.8441	-1602.5432	-1610.9795	-1620.2212	-1628.6597	-1637.3959	-1623.9152	-1631.9620	-1657.4680	-1673.3690	-1680.8293	-1676.6451	-1681.1729	-1705.3418	-1710.7318	-1719.9057	-1733.4979	-1742.6258	-1752.5043	-1756.2093	-1756.6163	-1776.5331	-1784.7878	-1793.8237	-1803.4921	-1810.6045	-1818.4806	-1808.6524	-1811.9547	-1843.5642	-1851.7532	-1859.7322	-1868.5712	-1876.1081	-1884.8005	-1893.5323	-1897.2022	-1903.4633	-1915.9745	-1923.8790	-1932.1315	-1940.2046	-1948.6803	-1956.2741	-1964.9249	-1971.9016	-1979.8302	-1987.3977	-1991.1334	-2001.8785
-697.3143	-739.2400	-755.9091	-772.3726	-786.2318	-799.6314	-813.6417	-820.3054	-832.9326	-853.5474	-866.1220	-878.9899	-890.8971	-901.7560	-917.0071	-926.6076	-934.4991	-950.4329	-965.7299	-976.1468	-989.5596	-1000.8299	-1012.8027	-1021.2587	-1030.2050	-1047.5744	-1059.4181	-1071.1196	-1081.7925	-1093.9250	-1105.2216	-1117.6081	-1123.2564	-1133.7586	-1150.3336	-1161.0984	-1172.1258	-1183.6807	-1194.1872	-1204.4050	-1203.7441	-1209.1560	-1237.3384	-1248.2761	-1259.1853	-1269.0266	-1275.9989	-1277.7956	-1295.8632	-1310.9895	-1321.8703	-1331.3680	-1341.8658	-1348.9738	-1337.1870	-1359.3425	-1381.6118	-1391.6741	-1400.1783	-1410.8862	-1420.1235	-1429.5512	-1439.9265	-1449.2557	-1439.2109	-1453.9170	-1474.5341	-1487.7039	-1497.1316	-1507.1633	-1516.2080	-1522.4713	-1523.6946	-1544.0687	-1551.2424	-1562.7053	-1571.6012	-1581.1230	-1589.6250	-1599.6151	-1607.8085	-1617.6214	-1625.9001	-1634.5575	-1617.7045	-1626.1978	-1655.0235	-1671.1806	-1678.6322	-1680.8687	-1683.1206	-1691.2987	-1710.4233	-1720.2536	-1730.5020	-1737.7390	-1749.2873	-1755.1369	-1759.5444	-1774.3490	-1781.6321	-1791.4121	-1799.3779	-1807.2628	-1815.4825	-1815.3468	-1819.3975	-1841.2817	-1848.1577	-1856.6093	-1865.6125	-1872.8780	-1881.5945	-1890.7420	-1896.6836	-1902.8374	-1913.6810	-1910.5778	-1921.0319	-1937.7142	-1946.2862	-1953.0134	-1962.1172	-1969.0282	-1976.4360	-1984.1545	-1972.3721	-1993.3677
-694.2680	-736.2878	-753.2765	-769.2015	-782.7500	-796.3882	-810.2343	-821.5506	-833.9458	-851.0570	-863.3778	-875.2893	-888.4723	-899.1824	-912.7900	-911.4003	-928.4131	-948.9141	-962.6552	-973.3981	-986.1019	-998.2322	-1009.3581	-1020.0989	-1030.2509	-1044.7842	-1056.6520	-1068.1608	-1079.1642	-1091.5637	-1100.7463	-1113.9709	-1119.6170	-1132.7388	-1146.8737	-1158.0303	-1168.6703	-1180.6869	-1191.8741	-1201.1180	-1207.7313	-1214.6533	-1234.1280	-1245.7288	-1256.3951	-1265.6412	-1275.3490	-1278.9161	-1278.4456	-1307.5165	-1318.1544	-1328.1598	-1338.6861	-1348.0612	-1332.5344	-1348.5471	-1379.2024	-1388.9539	-1397.0358	-1407.6474	-1417.3311	-1426.0848	-1436.2412	-1446.3867	-1443.9991	-1448.7502	-1455.8363	-1484.7277	-1494.7485	-1503.5065	-1513.2778	-1521.0072	-1526.2748	-1541.0400	-1540.9043	-1555.1990	-1568.9051	-1578.2649	-1586.6728	-1596.3171	-1605.0358	-1613.5618	-1622.9895	-1631.7410	-1626.7273	-1631.2048	-1656.0937	-1667.9790	-1676.0630	-1681.4136	-1687.8060	-1693.3952	-1708.8782	-1718.7677	-1727.8408	-1715.1765	-1730.7011	-1748.5783	-1759.7654	-1771.6770	-1778.8309	-1784.7243	-1783.2975	-1805.1947	-1812.1254	-1817.2026	-1824.2317	-1838.0253	-1845.0567	-1854.5654	-1862.4152	-1869.7267	-1878.5635	-1887.6411	-1894.4755	-1900.6884	-1910.8142	-1907.5206	-1903.6209	-1933.7225	-1942.9817	-1950.0065	-1959.0359	-1966.6647	-1972.9192	-1980.8216	-1969.0829	-1976.4119
-689.8453	-732.8564	-750.4337	-765.5075	-780.3056	-793.1165	-806.6300	-820.2004	-833.0442	-847.9210	-860.4606	-872.6895	-884.6448	-896.9480	-909.3782	-904.4981	-913.8973	-939.4689	-959.8431	-971.5445	-982.5938	-995.0437	-1006.8458	-1018.5801	-1029.0473	-1042.1209	-1053.4875	-1064.8366	-1076.0063	-1088.2549	-1098.9606	-1110.0843	-1117.7372	-1130.7495	-1143.2475	-1153.3120	-1166.7511	-1177.6757	-1188.5039	-1198.4656	-1207.3309	-1215.9160	-1230.8760	-1242.2032	-1253.0009	-1262.6343	-1273.6770	-1280.6427	-1279.8308	-1304.5665	-1314.8761	-1325.5162	-1335.6091	-1345.6715	-1340.9883	-1347.4879	-1376.2721	-1386.1637	-1393.6174	-1402.9970	-1413.4007	-1422.7978	-1427.1264	-1443.5680	-1447.9514	-1455.6590	-1444.3449	-1478.4032	-1491.6125	-1499.9525	-1510.2490	-1519.2412	-1526.3667	-1537.4838	-1528.0846	-1538.8253	-1565.7341	-1573.6911	-1576.5032	-1588.7540	-1602.3703	-1609.7628	-1619.8557	-1628.6444	-1630.6949	-1637.3871	-1654.6953	-1663.8407	-1660.6959	-1679.9518	-1688.2984	-1695.4939	-1707.0640	-1715.7849	-1725.3504	-1713.0997	-1713.1785	-1731.7537	-1758.0366	-1767.6612	-1776.3383	-1781.5861	-1766.8231	-1802.2075	-1808.4555	-1816.2922	-1824.7920	-1833.5347	-1842.5028	-1851.9130	-1858.7781	-1863.3650	-1875.4800	-1883.8595	-1891.6087	-1898.8326	-1907.8314	-1910.2014	-1907.1311	-1929.0043	-1939.5130	-1946.7808	-1954.7203	-1963.6031	-1970.3719	-1977.5915	-1976.5104	-1970.8730
-682.4681	-729.8954	-747.2299	-762.2686	-777.5897	-790.6436	-803.7719	-817.4626	-830.6347	-844.3451	-857.6179	-869.8599	-881.1761	-894.9019	-906.9622	-910.2317	-917.0727	-930.5577	-957.1820	-969.0322	-979.6526	-991.3037	-1004.2373	-1015.5535	-1027.2659	-1038.9171	-1049.8657	-1062.3615	-1072.8878	-1084.3245	-1097.2755	-1107.2218	-1116.0368	-1128.5589	-1140.6039	-1146.9284	-1156.0060	-1173.5045	-1184.4729	-1196.0014	-1205.7005	-1215.4674	-1228.3112	-1239.0344	-1249.0202	-1259.4567	-1270.4513	-1279.7521	-1284.5119	-1302.1067	-1312.2982	-1322.6056	-1331.9217	-1342.6668	-1346.3871	-1353.2631	-1373.1777	-1382.9336	-1390.6040	-1389.2362	-1400.8502	-1419.9572	-1421.0820	-1440.2022	-1447.6341	-1458.0203	-1440.4495	-1476.7269	-1488.1044	-1497.2411	-1506.4893	-1516.9171	-1525.3709	-1534.6411	-1532.6824	-1540.5279	-1562.1801	-1570.7937	-1568.4455	-1573.7962	-1598.0372	-1607.3905	-1616.1179	-1625.7338	-1630.4674	-1639.0044	-1652.2268	-1660.6259	-1658.4528	-1665.8102	-1686.2654	-1693.5790	-1704.8275	-1712.6204	-1722.5711	-1721.3172	-1715.8812	-1727.1559	-1755.8110	-1764.2604	-1772.8675	-1780.6101	-1768.1405	-1797.2595	-1805.7200	-1814.4473	-1823.2535	-1830.0464	-1839.3953	-1848.4619	-1855.4167	-1845.3696	-1867.1881	-1881.1174	-1888.4179	-1896.5370	-1904.1548	-1910.3130	-1911.9850	-1927.2251	-1936.7907	-1943.6601	-1951.0657	-1960.4912	-1967.8421	-1974.4598	-1978.8060	-1978.5040
-673.8655	-726.9498	-744.0764	-759.1589	-773.8147	-787.8096	-801.1852	-814.6374	-827.8598	-838.2176	-854.6985	-866.7676	-878.2940	-892.2955	-904.6031	-911.8358	-921.4255	-933.8600	-953.7637	-965.7452	-976.8033	-988.0211	-1000.3878	-1011.7238	-1024.0424	-1035.6979	-1046.7888	-1059.3043	-1070.4171	-1080.9499	-1093.3867	-1105.0137	-1113.5245	-1126.1669	-1137.9078	-1145.4359	-1141.4377	-1154.3559	-1181.1158	-1193.1959	-1204.3568	-1213.8523	-1225.7901	-1235.6927	-1245.9826	-1256.7343	-1267.3744	-1277.7059	-1285.2603	-1298.8657	-1308.7595	-1319.2661	-1328.1882	-1339.7781	-1347.0108	-1355.4449	-1369.8075	-1379.4628	-1387.7087	-1380.7758	-1384.7653	-1416.8190	-1423.5418	-1436.7314	-1445.9446	-1458.4427	-1450.4593	-1474.0439	-1484.9093	-1494.6609	-1502.5042	-1512.4243	-1522.5523	-1532.2032	-1535.1072	-1544.7690	-1558.3919	-1567.8240	-1571.4436	-1575.1355	-1594.2863	-1605.4757	-1612.5661	-1622.6153	-1629.7080	-1638.5667	-1649.8698	-1658.8708	-1661.1993	-1663.0638	-1683.8012	-1691.0930	-1702.2386	-1710.0600	-1718.6495	-1723.9542	-1725.2913	-1734.2463	-1753.3709	-1761.3827	-1769.4820	-1778.5770	-1776.2726	-1793.9113	-1803.3652	-1812.2633	-1820.9513	-1827.7201	-1836.0251	-1845.0436	-1852.9613	-1844.0894	-1848.3721	-1878.5613	-1885.1244	-1893.1953	-1900.8766	-1908.0787	-1913.2368	-1923.2028	-1933.2651	-1940.9114	-1948.5753	-1957.1517	-1964.6054	-1971.3501	-1977.1516	-1981.5394
-668.7905	-723.6497	-741.4240	-756.5394	-770.2564	-783.5094	-797.8938	-812.1798	-825.2687	-823.1372	-842.7498	-859.8873	-876.0487	-889.2623	-901.6116	-910.9408	-922.0973	-934.7682	-950.3103	-961.8433	-973.9168	-985.4585	-996.9039	-1008.7301	-1020.2258	-1032.9711	-1043.9964	-1055.1463	-1067.2811	-1078.6258	-1089.5066	-1102.1053	-1110.8087	-1123.3745	-1134.1853	-1143.4138	-1146.7621	-1147.2589	-1168.3596	-1189.7579	-1201.6454	-1211.4385	-1222.0283	-1232.9419	-1243.7636	-1254.5153	-1264.6389	-1274.6071	-1283.7306	-1295.2964	-1305.3587	-1316.2767	-1325.2207	-1336.6443	-1346.0566	-1355.1539	-1365.8662	-1376.4909	-1383.7849	-1384.7347	-1387.7219	-1413.7749	-1422.7868	-1434.5780	-1443.3448	-1457.0880	-1455.2607	-1471.7789	-1482.0075	-1491.2754	-1500.2064	-1494.9082	-1515.0876	-1529.2488	-1534.6389	-1545.1717	-1555.7549	-1564.3685	-1571.3670	-1577.4092	-1591.9775	-1602.2587	-1609.9663	-1619.3458	-1628.0492	-1636.5533	-1647.2262	-1656.2228	-1661.6654	-1666.5740	-1681.3414	-1688.9615	-1699.0785	-1707.1144	-1714.9270	-1723.4093	-1728.3376	-1736.0124	-1750.4340	-1758.4436	-1766.3351	-1774.9990	-1778.8265	-1791.2545	-1800.1811	-1809.1339	-1817.9050	-1824.9211	-1832.8103	-1841.9557	-1849.9303	-1849.4226	-1847.3217	-1875.1824	-1881.7039	-1890.1140	-1898.4912	-1904.6232	-1912.1557	-1905.2206	-1920.2331	-1937.7733	-1946.4328	-1953.4511	-1961.1061	-1968.1856	-1974.8297	-1982.1543
-672.3839	-720.3518	-738.1107	-754.3925	-767.7003	-776.5043	-785.2142	-808.2341	-822.3253	-825.6079	-832.9391	-841.7059	-872.4860	-885.5420	-898.5303	-909.0981	-920.7930	-933.6171	-947.5201	-958.3265	-970.6604	-983.0862	-994.0830	-1006.4082	-1017.4793	-1029.9796	-1040.9588	-1051.9885	-1063.2522	-1075.2404	-1086.8871	-1098.2559	-1099.1991	-1111.9882	-1124.8495	-1140.8775	-1149.7712	-1154.4544	-1164.7246	-1185.9916	-1198.1570	-1208.9000	-1218.1176	-1230.2895	-1240.4810	-1250.8737	-1261.8027	-1271.1800	-1281.1395	-1292.2829	-1302.4350	-1312.9022	-1322.6734	-1333.5455	-1344.2381	-1352.5737	-1362.6492	-1373.8933	-1380.5592	-1371.8646	-1393.5474	-1410.6477	-1420.3533	-1431.7637	-1440.2657	-1454.6458	-1456.1229	-1469.7808	-1478.8671	-1487.7521	-1497.6787	-1482.1301	-1501.0970	-1525.9268	-1532.5074	-1543.1255	-1553.4943	-1561.1931	-1569.4719	-1577.4421	-1588.8153	-1598.6763	-1606.7559	-1615.3454	-1625.1976	-1633.7828	-1643.4468	-1652.2355	-1659.8446	-1666.0532	-1678.5906	-1686.2260	-1694.8396	-1703.9434	-1712.1149	-1721.3500	-1728.1166	-1735.9774	-1747.2149	-1755.1632	-1763.4748	-1771.9571	-1778.9775	-1788.4008	-1796.7847	-1806.1926	-1815.0886	-1821.7326	-1829.4796	-1838.7015	-1846.3785	-1850.1032	-1853.7163	-1871.8407	-1878.6379	-1887.0721	-1895.8564	-1901.7213	-1909.3939	-1898.0929	-1903.7259	-1934.1317	-1943.0014	-1950.0371	-1957.4931	-1965.2904	-1973.2606	-1980.9397
-674.3207	-717.2858	-734.4911	-751.5192	-765.3762	-773.7491	-773.4711	-792.4425	-817.8981	-827.2908	-837.4626	-835.7053	-867.7590	-881.8524	-895.3527	-906.5202	-918.4996	-931.0195	-944.8809	-955.0592	-967.6295	-979.6329	-991.1899	-1003.3400	-1015.2362	-1026.5087	-1038.0264	-1049.1238	-1060.1972	-1071.4807	-1083.9918	-1094.9711	-1097.3565	-1108.2854	-1108.0141	-1132.9116	-1148.5107	-1156.8813	-1167.5345	-1183.2014	-1195.1961	-1206.1776	-1215.8394	-1227.0747	-1237.0101	-1246.5801	-1252.9112	-1264.4660	-1277.2813	-1289.5124	-1299.7936	-1309.5145	-1320.0123	-1330.6743	-1341.0495	-1349.5822	-1360.4980	-1371.0352	-1378.2898	-1373.2455	-1394.6876	-1408.1091	-1417.7382	-1427.9515	-1436.9677	-1451.7089	-1455.9894	-1466.3122	-1475.5210	-1484.6927	-1494.4114	-1489.1899	-1491.2229	-1523.1059	-1530.1986	-1540.2193	-1550.4655	-1558.1840	-1566.7626	-1576.0371	-1585.4101	-1594.9910	-1603.4645	-1611.9534	-1615.7262	-1621.8603	-1639.9716	-1648.3576	-1656.7655	-1664.2302	-1675.2423	-1683.2563	-1677.5248	-1695.4742	-1704.8275	-1715.4697	-1726.2149	-1734.2945	-1743.7856	-1752.0950	-1760.3760	-1769.3310	-1777.7936	-1784.9716	-1793.7012	-1803.6672	-1811.9307	-1818.4959	-1826.0810	-1835.4321	-1843.2644	-1849.7355	-1855.7887	-1869.2803	-1875.8192	-1883.9229	-1892.5912	-1899.7277	-1906.7284	-1905.5620	-1907.7504	-1930.7988	-1939.4014	-1947.0105	-1954.6284	-1962.0997	-1970.5601	-1977.8606
-674.0843	-714.9945	-731.3704	-747.6829	-762.3496	-772.8671	-777.7013	-791.9304	-814.1822	-827.1464	-838.3292	-842.9030	-865.3014	-879.2985	-891.6127	-903.9860	-915.9894	-928.2752	-941.7383	-952.2405	-964.7911	-976.3853	-986.9925	-999.7970	-1011.6363	-1022.7994	-1034.9210	-1046.1760	-1057.4682	-1068.4213	-1080.3350	-1091.8876	-1097.9211	-1109.8173	-1109.9005	-1117.7109	-1135.4874	-1156.3474	-1167.2588	-1180.5337	-1192.2746	-1202.8709	-1213.2243	-1223.4091	-1234.1192	-1244.0087	-1251.0204	-1248.2279	-1261.0105	-1285.7724	-1297.4235	-1307.0941	-1317.0076	-1327.7856	-1337.5437	-1346.8357	-1357.7844	-1367.0020	-1376.1036	-1378.6443	-1393.5605	-1404.6952	-1415.3572	-1424.2509	-1434.0046	-1448.6429	-1453.8689	-1462.3162	-1472.2844	-1481.6814	-1491.2032	-1494.0263	-1497.7291	-1520.1581	-1527.9292	-1536.7616	-1546.7889	-1555.3435	-1563.8673	-1573.5248	-1583.1604	-1591.2510	-1600.5561	-1610.1348	-1601.2717	-1604.8607	-1628.5809	-1645.4667	-1654.2248	-1662.0199	-1671.3032	-1679.9080	-1663.4555	-1678.9801	-1691.9530	-1698.3892	-1721.1202	-1731.9835	-1740.8138	-1749.3004	-1757.0606	-1765.7639	-1774.9902	-1781.9844	-1790.5499	-1797.1895	-1808.0506	-1815.4671	-1823.1726	-1832.1385	-1840.0671	-1848.2627	-1855.6508	-1866.4616	-1872.5366	-1880.6819	-1888.4070	-1897.5983	-1903.6690	-1907.8905	-1913.3593	-1927.5796	-1937.0336	-1944.7455	-1951.8820	-1959.2328	-1966.5881	-1973.8799
-672.4167	-712.2765	-729.3483	-743.8838	-758.2113	-771.1667	-780.8330	-795.3203	-811.7662	-825.1768	-837.4319	-845.5925	-862.9904	-877.3420	-888.7043	-900.4211	-912.9957	-917.5060	-935.1687	-949.6122	-961.3159	-973.4025	-983.1212	-984.1564	-993.6978	-1019.4599	-1031.4327	-1043.3289	-1053.7698	-1065.7076	-1076.9845	-1088.4934	-1096.5271	-1109.6576	-1114.6865	-1121.0110	-1120.8600	-1143.6239	-1164.8253	-1177.4415	-1188.4208	-1199.0652	-1209.6221	-1220.1090	-1231.2743	-1241.9691	-1250.4076	-1251.5522	-1255.8962	-1281.8901	-1294.6508	-1304.6256	-1313.7316	-1325.1748	-1334.4865	-1344.3147	-1354.0247	-1363.7587	-1372.7969	-1380.2265	-1391.4684	-1401.1215	-1412.3853	-1421.0689	-1431.7331	-1445.9446	-1440.4539	-1451.6389	-1469.3738	-1478.6986	-1488.3999	-1494.2145	-1500.7929	-1516.1577	-1524.9770	-1533.8489	-1543.3137	-1552.4416	-1560.9721	-1570.3779	-1580.7510	-1587.9880	-1597.8053	-1607.9245	-1602.7861	-1601.1120	-1622.0004	-1642.5430	-1651.8022	-1659.7265	-1667.9089	-1677.3191	-1670.6226	-1680.8031	-1695.1131	-1699.6563	-1717.3715	-1729.0292	-1738.0564	-1746.0616	-1751.1387	-1761.7350	-1771.4384	-1779.4984	-1787.2607	-1794.6444	-1805.2801	-1811.7840	-1819.5223	-1829.2367	-1836.8961	-1845.0217	-1853.6025	-1862.6866	-1869.5844	-1875.6354	-1882.9469	-1894.3836	-1900.6446	-1907.5709	-1914.1296	-1925.1702	-1934.0048	-1941.6161	-1949.0326	-1956.2544	-1963.5812	-1970.9037
-669.7753	-708.7028	-726.6041	-741.0717	-750.2718	-766.5120	-779.6950	-794.8213	-809.2539	-821.6775	-835.6287	-845.6757	-859.8216	-874.5059	-885.9753	-896.8211	-909.5949	-905.7586	-917.5914	-947.0321	-957.7225	-970.2380	-980.8672	-969.0300	-977.3635	-1016.7178	-1023.3093	-1037.7200	-1050.7564	-1062.4994	-1074.8990	-1085.2742	-1095.5357	-1107.2634	-1108.2548	-1123.8735	-1126.8519	-1143.0790	-1162.2867	-1174.4784	-1184.8887	-1195.5681	-1206.6393	-1217.1503	-1227.8538	-1238.7499	-1248.3483	-1253.6749	-1261.3190	-1279.5463	-1290.7773	-1300.7959	-1310.1973	-1322.0629	-1331.4752	-1340.7147	-1350.3766	-1361.7585	-1368.9475	-1379.1433	-1389.2450	-1398.6136	-1409.4681	-1418.1124	-1428.4089	-1442.3491	-1430.9824	-1434.2257	-1466.5682	-1476.0134	-1485.5834	-1493.2012	-1501.9505	-1512.7504	-1521.3421	-1530.7654	-1540.0618	-1549.5748	-1558.0987	-1567.2244	-1577.3523	-1585.5589	-1594.1309	-1604.4187	-1607.1082	-1610.0297	-1625.7185	-1639.2166	-1648.1607	-1656.6758	-1664.9217	-1675.1504	-1675.9689	-1684.8867	-1696.4218	-1703.7486	-1716.2576	-1725.3045	-1734.9816	-1742.2078	-1734.7365	-1758.9798	-1768.0048	-1776.0057	-1783.8336	-1792.1408	-1802.6299	-1808.3001	-1816.2243	-1826.4070	-1833.7710	-1841.5618	-1850.2848	-1858.9356	-1866.6826	-1859.0210	-1867.5667	-1887.6980	-1898.0120	-1905.5882	-1912.5605	-1922.5025	-1929.8687	-1937.6529	-1946.3475	-1952.3875	-1961.0120	-1967.3409
-666.9391	-705.3699	-722.9516	-738.5156	-748.9018	-754.7908	-769.3329	-787.9760	-806.4002	-818.4365	-832.7509	-844.4480	-849.1049	-870.1619	-882.8765	-894.2475	-906.4830	-910.2186	-906.4458	-937.3090	-955.0483	-966.5987	-978.5081	-963.9201	-970.5838	-1004.4145	-1012.9406	-1024.1234	-1044.8148	-1059.1074	-1071.9687	-1082.2630	-1093.4130	-1103.7423	-1093.3582	-1116.0018	-1130.9968	-1145.0617	-1159.6300	-1171.6466	-1182.6127	-1192.5853	-1203.9323	-1214.5067	-1224.0525	-1234.6029	-1245.4158	-1253.7493	-1263.0610	-1276.8918	-1286.9607	-1297.6861	-1307.1707	-1317.6904	-1328.6194	-1337.0207	-1347.6367	-1358.7276	-1365.6977	-1376.1736	-1386.5226	-1395.5323	-1406.5532	-1415.1099	-1424.2968	-1438.5171	-1435.9414	-1428.2513	-1462.2636	-1473.2385	-1482.4430	-1491.3695	-1500.8826	-1510.2993	-1518.3768	-1528.3100	-1537.0921	-1546.1412	-1555.4988	-1564.1693	-1573.7261	-1583.3245	-1590.4566	-1600.5955	-1607.1257	-1612.9557	-1625.5719	-1636.1594	-1644.6527	-1653.5398	-1662.2606	-1671.2813	-1676.9646	-1685.4513	-1694.8505	-1703.7814	-1714.3449	-1722.3654	-1731.6837	-1739.0740	-1719.9450	-1750.1058	-1765.0001	-1772.2306	-1781.5752	-1790.0334	-1798.8549	-1805.2823	-1813.0577	-1823.3958	-1826.5230	-1833.5456	-1841.1723	-1855.2766	-1863.1965	-1859.1567	-1858.2857	-1882.5377	-1895.0860	-1902.4522	-1910.1511	-1919.0317	-1926.2688	-1934.1361	-1943.1589	-1948.2798	-1957.5937	-1951.7682
-664.2977	-702.1595	-719.9425	-735.5022	-748.0637	-753.1911	-764.1485	-773.6112	-803.0322	-816.1562	-828.9102	-842.0473	-830.9389	-853.9807	-879.7515	-891.3370	-902.2090	-902.6357	-910.3783	-932.2253	-951.6540	-963.3467	-975.6960	-972.2514	-977.1469	-999.1251	-1016.2320	-1026.5569	-1027.4279	-1056.2799	-1068.4847	-1079.7551	-1090.2726	-1100.8514	-1089.1937	-1099.2276	-1117.7919	-1144.9085	-1156.5356	-1168.6200	-1179.9319	-1189.4056	-1200.4286	-1211.2985	-1221.1682	-1231.5085	-1242.5052	-1252.7054	-1261.5598	-1274.3554	-1283.9472	-1295.4539	-1304.5227	-1314.0970	-1325.4768	-1334.6441	-1344.6539	-1354.8497	-1363.0541	-1373.0704	-1383.1131	-1391.8317	-1403.1174	-1412.0920	-1421.5482	-1434.8231	-1437.7818	-1431.3939	-1449.5030	-1469.3738	-1479.0531	-1488.3036	-1497.8472	-1507.6382	-1515.8295	-1525.8305	-1534.3084	-1543.0293	-1552.5335	-1560.9524	-1570.2115	-1580.6065	-1587.8064	-1597.4179	-1605.7426	-1612.5333	-1623.5651	-1633.2335	-1641.5867	-1650.4213	-1659.4201	-1662.8537	-1675.4808	-1684.4818	-1692.2572	-1701.4748	-1711.7735	-1719.4592	-1728.6703	-1736.3997	-1724.7158	-1733.5789	-1762.1486	-1770.0422	-1778.6602	-1787.7027	-1794.9026	-1787.0790	-1807.9893	-1819.9840	-1821.5488	-1814.3248	-1822.7502	-1844.4396	-1859.5506	-1862.7916	-1865.3630	-1881.5288	-1892.0573	-1899.8984	-1907.3937	-1915.7206	-1923.2969	-1930.9892	-1939.5809	-1946.1549	-1953.4051	-1948.8247
-661.7263	-698.9710	-717.0648	-732.2917	-745.7811	-755.1869	-767.5668	-774.8980	-789.5691	-813.9568	-825.5138	-838.7362	-825.2643	-841.9444	-876.2347	-888.1681	-899.8302	-898.6747	-900.0994	-933.1357	-947.9469	-960.9942	-972.4155	-977.4729	-985.1236	-1002.5084	-1016.6062	-1027.5264	-1031.4677	-1053.5116	-1064.9964	-1076.8751	-1086.8543	-1098.3938	-1097.4374	-1102.9851	-1108.3533	-1142.9236	-1153.6994	-1165.0945	-1176.3451	-1186.2739	-1196.3778	-1208.0815	-1218.6143	-1229.2960	-1239.7588	-1249.4666	-1258.6142	-1271.3770	-1281.2555	-1292.1626	-1301.7653	-1311.4644	-1322.1066	-1331.9786	-1341.0736	-1351.3745	-1360.4411	-1370.4268	-1372.9413	-1387.6650	-1399.6137	-1409.1464	-1419.0228	-1431.8031	-1436.9174	-1438.7097	-1441.0426	-1463.6861	-1475.9916	-1484.3666	-1494.3414	-1503.7450	-1512.2076	-1519.9415	-1530.9952	-1540.3003	-1548.6688	-1557.8973	-1567.0843	-1576.8315	-1585.2875	-1594.6824	-1603.3835	-1611.1437	-1621.4752	-1630.1150	-1639.1444	-1647.0358	-1648.3817	-1644.4294	-1671.4936	-1681.7879	-1689.7230	-1698.9822	-1708.7229	-1715.4413	-1725.3570	-1733.3381	-1731.7756	-1737.1832	-1759.2621	-1767.6919	-1774.8327	-1784.4880	-1791.6703	-1773.5262	-1791.3771	-1816.6839	-1821.7785	-1818.1567	-1810.9918	-1842.2227	-1856.5240	-1862.7281	-1868.1992	-1879.6949	-1887.6673	-1897.5983	-1905.0586	-1912.3876	-1920.3797	-1928.2340	-1935.6439	-1943.8001	-1948.2470	-1948.2426
-659.5029	-696.1588	-713.6202	-729.2958	-743.0784	-754.5195	-767.9213	-779.3930	-786.1158	-808.0196	-822.9074	-835.6134	-823.8200	-849.0655	-872.8011	-885.3341	-897.1910	-903.2857	-905.0627	-932.5120	-945.0735	-958.5519	-969.2817	-978.8648	-988.2334	-1002.3727	-1015.2384	-1026.6225	-1033.6714	-1050.3647	-1061.9895	-1073.4962	-1084.3288	-1095.2775	-1100.6894	-1109.6466	-1114.5508	-1139.2274	-1150.6487	-1161.3391	-1173.1500	-1183.4990	-1193.6839	-1202.1968	-1204.9170	-1222.0436	-1236.8876	-1245.7310	-1256.4761	-1268.2782	-1277.9204	-1288.1906	-1298.6403	-1309.1512	-1318.4235	-1327.9431	-1338.1980	-1345.0719	-1357.3489	-1367.8861	-1356.6157	-1369.9257	-1388.4397	-1406.0017	-1415.0223	-1428.4526	-1434.9063	-1440.9266	-1446.0147	-1460.7711	-1472.9540	-1481.9834	-1490.9888	-1500.0138	-1508.3035	-1505.2769	-1528.2793	-1537.2606	-1539.9742	-1555.0502	-1564.1934	-1572.9711	-1582.2785	-1580.8844	-1593.1264	-1608.4081	-1611.4632	-1626.4801	-1635.8968	-1643.2827	-1641.3613	-1633.5202	-1668.4692	-1679.1289	-1687.4777	-1696.8179	-1705.6087	-1712.4475	-1721.5163	-1730.2503	-1734.6315	-1740.5709	-1756.1611	-1763.7527	-1771.4756	-1781.5861	-1789.2281	-1780.1396	-1787.4773	-1813.5282	-1820.3386	-1823.2601	-1816.2178	-1843.3125	-1854.1890	-1860.5704	-1868.6872	-1877.4277	-1883.6888	-1894.0881	-1902.2400	-1909.4333	-1917.4319	-1925.1001	-1931.6676	-1929.7505	-1935.2763	-1950.3763
-656.6405	-693.5699	-710.4776	-726.5975	-740.8244	-753.4537	-766.3282	-779.2945	-788.3261	-804.8749	-820.1632	-832.2848	-832.6809	-853.3264	-869.3653	-882.4038	-894.7312	-904.1983	-912.3917	-930.4089	-942.3051	-954.9257	-966.2770	-977.9872	-988.4063	-1000.3419	-1012.7283	-1023.4384	-1034.0063	-1047.4169	-1059.4728	-1070.6184	-1081.8144	-1092.0627	-1100.8229	-1110.1587	-1118.5972	-1135.8310	-1147.4909	-1159.1398	-1170.3029	-1180.8401	-1191.2132	-1198.3671	-1189.4975	-1200.9057	-1233.4299	-1243.5601	-1254.3752	-1264.4616	-1274.5174	-1285.0808	-1295.0644	-1305.7023	-1314.8280	-1324.3716	-1335.4581	-1328.0000	-1341.4566	-1360.1303	-1348.3545	-1366.4198	-1377.3816	-1402.2289	-1411.9301	-1424.7126	-1432.3020	-1439.4275	-1447.4065	-1458.7600	-1470.0347	-1479.7906	-1488.1657	-1497.3767	-1505.9072	-1506.5571	-1524.4321	-1534.3697	-1536.4574	-1552.2053	-1560.9414	-1569.3427	-1579.0834	-1572.5685	-1575.9539	-1598.6172	-1600.6655	-1623.7073	-1632.6798	-1640.6303	-1644.4185	-1640.4990	-1662.6896	-1676.6254	-1684.5278	-1693.3011	-1702.9651	-1710.0031	-1718.4898	-1727.5673	-1734.1391	-1741.1267	-1753.1739	-1759.8858	-1768.7204	-1778.9972	-1786.5888	-1785.2977	-1793.6837	-1810.4557	-1817.9379	-1823.8663	-1825.2362	-1842.0826	-1851.1142	-1858.5373	-1866.8642	-1874.1517	-1882.1919	-1890.4335	-1898.7976	-1905.8180	-1914.3966	-1921.9598	-1928.9999	-1913.7882	-1920.5548	-1947.7459
-653.2900	-690.8410	-707.3810	-723.2164	-738.3011	-751.1931	-764.0063	-777.1914	-787.4770	-803.1614	-817.2810	-829.5099	-836.0707	-853.1776	-866.6867	-878.6857	-891.7965	-903.2047	-913.4356	-927.5858	-939.4033	-951.1222	-963.4758	-975.3567	-986.4279	-998.2322	-1009.3647	-1009.6930	-1024.0336	-1044.6179	-1057.2275	-1067.0404	-1078.0240	-1089.7320	-1099.2691	-1108.8610	-1105.8869	-1130.3621	-1144.5409	-1156.8726	-1167.1187	-1178.1505	-1188.6221	-1196.9578	-1184.8887	-1193.3688	-1230.3464	-1241.1441	-1251.0532	-1260.7325	-1271.8869	-1282.7305	-1291.7380	-1301.8550	-1312.0290	-1321.9184	-1332.8671	-1330.7421	-1330.9894	-1342.3889	-1344.1790	-1372.1819	-1382.0101	-1398.9922	-1409.8008	-1421.7101	-1429.5403	-1436.6920	-1446.6449	-1456.0507	-1466.2837	-1476.4358	-1485.4411	-1494.8316	-1500.5324	-1502.5458	-1519.7423	-1531.2643	-1536.6260	-1548.6863	-1557.9717	-1566.4212	-1575.9255	-1577.4311	-1580.5124	-1597.4858	-1605.4866	-1621.4773	-1629.7014	-1637.5184	-1644.6220	-1646.7798	-1661.7267	-1673.1961	-1681.4071	-1690.1695	-1699.0479	-1707.3398	-1715.6317	-1724.5714	-1731.8106	-1740.1572	-1750.0379	-1757.1612	-1765.8449	-1775.9072	-1783.3609	-1786.1599	-1795.1040	-1807.5473	-1814.6246	-1821.8332	-1827.8142	-1839.6623	-1847.2517	-1856.0075	-1863.5028	-1870.8494	-1879.7256	-1886.9430	-1895.8104	-1902.2903	-1911.2322	-1919.5066	-1926.5817	-1916.0729	-1914.8365	-1933.4752
-650.6442	-687.5037	-704.6652	-719.5924	-734.5852	-747.6172	-761.3670	-775.0205	-786.1508	-800.6885	-814.1188	-826.7962	-835.9394	-850.9235	-864.0255	-874.9260	-888.6649	-900.6268	-911.0940	-924.9488	-936.3877	-948.3451	-960.5040	-972.1770	-983.9113	-995.7484	-1006.1237	-1005.6969	-1016.8994	-1041.1252	-1054.4964	-1063.7840	-1074.0039	-1087.0994	-1097.1486	-1106.6025	-1099.1225	-1112.2640	-1141.3830	-1153.4368	-1163.9784	-1174.8154	-1185.2104	-1195.0385	-1191.5655	-1192.1717	-1227.5431	-1237.7214	-1247.0944	-1258.2618	-1269.1361	-1279.6426	-1288.6852	-1299.4587	-1309.3000	-1319.2748	-1329.6348	-1334.1057	-1337.6137	-1344.9690	-1354.2719	-1373.0857	-1384.0650	-1396.3026	-1406.4481	-1418.6726	-1427.2993	-1434.2607	-1443.9707	-1453.1730	-1462.7101	-1472.8556	-1482.6071	-1491.4177	-1497.7531	-1494.5296	-1504.4059	-1527.1786	-1535.6062	-1545.2242	-1554.7395	-1563.7754	-1572.2993	-1578.6938	-1585.3029	-1597.6017	-1606.7362	-1617.7745	-1626.2525	-1623.0508	-1642.2870	-1648.3598	-1659.9650	-1669.3730	-1678.4089	-1687.7929	-1694.8374	-1703.9784	-1712.8393	-1720.5075	-1729.5631	-1737.9754	-1746.3614	-1754.8240	-1762.4462	-1772.2525	-1780.1833	-1785.4465	-1794.3030	-1804.6608	-1811.1516	-1819.0211	-1827.0723	-1837.0887	-1844.5008	-1853.3180	-1860.5682	-1868.1532	-1875.8127	-1879.8219	-1892.5891	-1899.5154	-1907.8095	-1916.2874	-1923.4348	-1922.2968	-1920.5592	-1935.5082
-647.9021	-684.2976	-701.5533	-716.4520	-731.0400	-744.7591	-758.2113	-772.6571	-784.0806	-797.4890	-811.2082	-823.7981	-834.3813	-849.1027	-860.9596	-872.2474	-885.6952	-897.3223	-909.1222	-921.8719	-933.1991	-945.5177	-957.2958	-969.5137	-980.9941	-992.7503	-1003.6464	-1009.2728	-1020.8561	-1037.9301	-1050.1655	-1061.0769	-1071.3691	-1083.0136	-1094.3299	-1104.2390	-1107.0752	-1111.2638	-1138.3389	-1149.8171	-1161.2779	-1171.2527	-1182.0131	-1192.7319	-1195.6951	-1199.0543	-1224.3217	-1234.4628	-1244.2013	-1255.7933	-1265.3238	-1276.3316	-1286.1072	-1297.1850	-1306.1990	-1316.1651	-1326.2559	-1334.6988	-1340.0210	-1349.4509	-1359.2747	-1371.7618	-1383.6405	-1393.3855	-1403.2902	-1414.9873	-1424.8680	-1431.8053	-1440.1519	-1450.7504	-1459.7360	-1468.7041	-1479.5193	-1487.5923	-1495.2759	-1498.7467	-1495.0242	-1523.6684	-1533.7832	-1542.9373	-1551.5794	-1560.4862	-1565.0359	-1577.0306	-1584.6835	-1595.6300	-1605.3991	-1614.2468	-1622.9414	-1621.7465	-1639.7944	-1648.2154	-1657.4330	-1666.2939	-1675.2336	-1684.7116	-1692.0646	-1700.4594	-1710.3357	-1717.5115	-1726.9064	-1734.7519	-1730.6945	-1750.6857	-1759.5575	-1768.3221	-1777.1174	-1783.4310	-1792.1080	-1801.5466	-1807.8449	-1815.0995	-1825.7615	-1834.1912	-1841.5290	-1850.4665	-1858.1434	-1864.8356	-1872.4403	-1862.1460	-1882.5005	-1896.8959	-1904.9230	-1912.5627	-1920.4388	-1924.8879	-1926.7064	-1938.6508
-645.0200	-681.2908	-698.3713	-713.9353	-728.0046	-742.2928	-755.0556	-768.9324	-781.8309	-794.8060	-808.1947	-820.7037	-827.4309	-843.9337	-857.7229	-869.8774	-882.5658	-894.8603	-907.4371	-918.1844	-930.4308	-941.7493	-954.3392	-966.5243	-978.0726	-989.3473	-1000.6329	-1009.2422	-1021.8365	-1035.1223	-1046.7953	-1058.1401	-1069.1697	-1079.2408	-1091.1939	-1102.1185	-1109.8436	-1116.6430	-1135.3320	-1146.9941	-1157.9340	-1168.1495	-1179.3892	-1190.1737	-1196.7915	-1203.2232	-1220.9756	-1231.8345	-1242.1682	-1252.4669	-1261.7195	-1273.1452	-1283.5008	-1293.6638	-1303.3300	-1312.6505	-1322.6581	-1332.6767	-1339.4717	-1349.6128	-1359.6357	-1369.8250	-1381.0516	-1390.3611	-1399.0732	-1411.2276	-1421.3950	-1429.2230	-1437.2325	-1447.7544	-1450.8335	-1463.0296	-1476.2848	-1484.6183	-1492.7767	-1500.2873	-1502.3488	-1521.3990	-1530.7391	-1539.9239	-1548.2749	-1557.2736	-1557.6282	-1564.8499	-1568.5133	-1593.0083	-1602.5191	-1611.5791	-1620.1008	-1623.3441	-1637.7307	-1645.9701	-1654.8704	-1663.6043	-1671.5351	-1680.6346	-1690.0097	-1697.5532	-1701.2866	-1714.5834	-1723.8076	-1731.2854	-1715.2815	-1732.1564	-1752.0929	-1765.8580	-1774.3206	-1780.8070	-1789.5104	-1798.3822	-1805.5471	-1811.4317	-1823.8050	-1831.3069	-1837.8109	-1847.0197	-1854.8411	-1861.5420	-1869.8492	-1865.1266	-1873.8103	-1893.9634	-1902.4325	-1909.7046	-1917.8280	-1921.5680	-1928.0567	-1938.2635
-642.0503	-678.0497	-695.1084	-711.4405	-725.3961	-738.6447	-752.3464	-765.2646	-778.7080	-791.9239	-804.9165	-817.7537	-814.8541	-824.6385	-847.8663	-866.2424	-879.2810	-892.5756	-904.2398	-915.1578	-927.7390	-938.6220	-951.3958	-963.3248	-974.8359	-986.5089	-997.1993	-1007.1457	-1019.8735	-1031.8922	-1044.2962	-1055.1770	-1066.2088	-1076.5797	-1088.5963	-1099.6565	-1109.4737	-1118.6651	-1132.1107	-1144.4490	-1154.2837	-1165.6656	-1176.3079	-1186.9480	-1196.0890	-1204.0176	-1218.0650	-1228.5782	-1239.0082	-1249.2105	-1258.5879	-1269.7357	-1274.6312	-1286.4136	-1300.3932	-1309.4051	-1319.1391	-1329.4269	-1337.5328	-1347.7811	-1357.7143	-1367.6300	-1377.1584	-1387.5096	-1396.9635	-1408.6716	-1417.7863	-1426.2095	-1434.5342	-1443.7146	-1449.3498	-1451.0743	-1466.7521	-1482.0316	-1490.3410	-1499.2872	-1505.1828	-1518.3067	-1527.2574	-1536.3458	-1545.2899	-1554.3215	-1559.4577	-1551.6779	-1553.4549	-1590.5944	-1599.8208	-1608.7692	-1616.5512	-1622.9392	-1635.3782	-1642.4817	-1651.9838	-1660.8382	-1668.3729	-1677.3651	-1687.0969	-1694.5025	-1685.5672	-1698.3935	-1719.9713	-1728.9241	-1719.1507	-1722.5099	-1734.5680	-1763.3851	-1771.1036	-1778.0015	-1786.9171	-1795.2440	-1802.3104	-1809.9611	-1820.2554	-1828.4204	-1829.1666	-1843.3782	-1851.2193	-1858.5089	-1866.9649	-1869.5144	-1876.8478	-1891.0003	-1899.5373	-1906.5577	-1914.7052	-1916.9220	-1916.1648	-1925.2927
-639.1900	-675.1654	-692.1431	-708.1076	-722.4745	-734.7384	-749.4971	-762.6254	-774.7339	-788.4946	-801.4325	-814.3770	-817.7668	-813.4972	-829.7221	-856.2020	-876.4886	-888.9669	-900.5283	-912.8316	-923.9159	-930.5183	-947.6821	-960.4274	-971.9100	-983.5458	-994.3587	-998.1950	-1016.4705	-1028.8591	-1041.2236	-1051.9184	-1062.5432	-1073.8682	-1085.4187	-1095.9843	-1107.0840	-1117.4592	-1128.7755	-1140.6346	-1151.4781	-1163.0002	-1172.8590	-1184.0221	-1193.9553	-1203.4377	-1215.4630	-1224.8929	-1235.0909	-1246.6260	-1256.0143	-1266.1948	-1258.5704	-1268.5386	-1290.5891	-1306.6105	-1316.6443	-1326.3303	-1335.3881	-1345.4592	-1355.2436	-1365.1068	-1374.5279	-1383.0343	-1394.7226	-1406.5860	-1414.7925	-1422.2113	-1430.3018	-1439.3487	-1448.8968	-1453.4640	-1452.7922	-1478.8124	-1487.8440	-1496.6108	-1504.5701	-1515.2101	-1524.2505	-1533.4440	-1542.5369	-1551.0498	-1558.6808	-1557.0329	-1549.6251	-1588.2550	-1597.3501	-1605.3444	-1613.1636	-1621.2760	-1631.4565	-1639.7769	-1648.5743	-1657.6212	-1666.0378	-1675.3189	-1683.1884	-1691.5985	-1689.6705	-1698.3782	-1716.4786	-1725.9654	-1725.8625	-1730.0796	-1738.4700	-1759.5838	-1767.2783	-1774.6379	-1783.7570	-1791.8301	-1799.2007	-1807.8252	-1815.9202	-1824.9255	-1812.5303	-1834.6683	-1848.6435	-1855.8675	-1863.2709	-1870.0090	-1876.7909	-1887.7767	-1896.2853	-1903.1110	-1911.0440	-1916.6441	-1909.2976	-1909.1619
-637.5465	-672.5655	-689.1603	-704.5076	-719.4479	-732.0926	-746.1335	-759.8395	-772.0049	-785.4571	-798.1280	-810.6151	-814.4930	-818.6969	-829.8491	-838.8610	-873.6677	-885.2072	-897.8168	-909.9801	-920.6333	-914.3350	-933.5996	-956.5911	-969.2576	-980.2807	-991.8071	-990.6187	-1009.9052	-1026.1389	-1037.5077	-1048.3819	-1059.6457	-1070.8132	-1081.7947	-1092.3538	-1104.2828	-1112.2946	-1125.4995	-1124.2543	-1149.1519	-1159.6453	-1169.7186	-1181.0983	-1190.8696	-1201.1180	-1211.8215	-1221.5862	-1232.1037	-1244.0743	-1253.5458	-1263.0566	-1262.2907	-1258.2203	-1272.8235	-1303.3235	-1313.0444	-1321.2904	-1332.8255	-1342.9294	-1352.2695	-1362.5354	-1372.5518	-1380.0952	-1391.0592	-1404.0452	-1412.0964	-1418.8477	-1428.1791	-1424.6338	-1442.6926	-1454.0899	-1456.9764	-1475.5189	-1485.0779	-1493.4310	-1502.2306	-1512.2755	-1521.5609	-1531.0192	-1539.4490	-1547.2398	-1556.7966	-1560.6526	-1560.5606	-1585.3313	-1593.6932	-1601.4118	-1610.8613	-1618.5077	-1628.1323	-1637.6344	-1645.2501	-1654.0803	-1662.6611	-1671.6555	-1679.9715	-1688.6245	-1688.1977	-1695.8047	-1713.7168	-1721.9737	-1727.6023	-1733.2856	-1741.3237	-1756.5769	-1764.3327	-1771.0795	-1780.5816	-1787.7531	-1796.1106	-1804.3216	-1813.3291	-1821.2095	-1806.5362	-1816.1302	-1842.5444	-1853.0203	-1859.9664	-1868.2167	-1875.5063	-1884.5138	-1892.4950	-1899.8568	-1907.9123	-1915.2654	-1915.2238	-1909.3501
-635.1787	-668.9437	-685.6763	-701.7393	-716.6249	-729.9020	-742.5795	-756.7254	-769.7114	-782.2642	-795.5391	-807.6104	-799.4520	-813.3747	-836.3224	-835.5740	-870.0568	-882.5264	-894.8647	-906.7412	-917.7446	-907.2883	-919.7469	-943.0295	-966.2332	-977.1928	-988.0671	-993.8554	-995.4442	-1014.5184	-1034.0894	-1045.2525	-1056.8511	-1068.0864	-1078.7593	-1090.1763	-1102.0528	-1110.0668	-1122.3700	-1114.3933	-1134.7105	-1156.2183	-1167.4273	-1177.3868	-1187.4491	-1198.2183	-1208.3266	-1219.2315	-1229.7490	-1240.6495	-1250.4186	-1260.4459	-1265.2079	-1266.1708	-1270.3222	-1300.2247	-1297.3841	-1303.0696	-1323.5138	-1340.1611	-1349.2955	-1359.2484	-1369.3020	-1377.3422	-1388.1092	-1393.6765	-1406.0279	-1415.1077	-1425.2991	-1416.8694	-1426.2008	-1442.2309	-1459.3815	-1472.4288	-1481.6902	-1491.0763	-1499.5192	-1509.4371	-1518.1032	-1527.7957	-1536.3393	-1544.0644	-1544.1038	-1558.5801	-1565.2285	-1582.0859	-1590.3143	-1598.5165	-1607.9311	-1615.3826	-1625.4165	-1634.4743	-1642.2104	-1650.6795	-1659.1071	-1668.0162	-1677.2578	-1685.8080	-1688.5785	-1678.7066	-1708.4799	-1719.1375	-1727.0224	-1733.0318	-1741.5338	-1753.8064	-1761.8751	-1768.3922	-1777.4544	-1773.1739	-1784.6630	-1800.6209	-1811.3595	-1818.0276	-1797.0823	-1805.5361	-1825.1005	-1849.5823	-1857.1171	-1864.8378	-1873.7118	-1881.2925	-1889.1598	-1897.5589	-1905.4810	-1909.6368	-1917.0249	-1917.8171
-631.9114	-654.9685	-682.3915	-698.8462	-713.2285	-726.8360	-738.9139	-753.6485	-766.5514	-778.7496	-792.4863	-805.5467	-803.8113	-812.4184	-830.4990	-834.9743	-857.8739	-879.8959	-891.8184	-903.7540	-915.5912	-914.8537	-924.9991	-933.3326	-962.7405	-974.4507	-984.7647	-994.2143	-998.7137	-1001.6965	-1031.3254	-1042.3923	-1053.2818	-1065.6420	-1076.3915	-1087.4451	-1099.4530	-1108.5458	-1119.7002	-1120.2495	-1126.0619	-1152.9706	-1164.9850	-1173.8941	-1184.3985	-1195.7629	-1205.7640	-1215.1720	-1227.0638	-1236.9686	-1246.8624	-1257.1676	-1264.9890	-1271.1494	-1277.9860	-1297.4673	-1298.5002	-1293.9943	-1308.2583	-1332.6964	-1346.0851	-1355.4646	-1365.2009	-1374.5717	-1384.2554	-1376.2502	-1386.1637	-1398.1715	-1422.3338	-1422.2550	-1425.2291	-1436.1646	-1450.9123	-1468.6210	-1478.3901	-1488.3080	-1496.4795	-1506.3689	-1514.6827	-1523.6880	-1533.6760	-1541.7425	-1534.6017	-1544.2963	-1566.4497	-1578.1927	-1588.2528	-1596.5097	-1604.3136	-1613.0979	-1622.4249	-1630.8109	-1632.3166	-1636.7350	-1654.5421	-1665.5082	-1673.4172	-1682.9412	-1688.8696	-1677.1178	-1699.9517	-1716.9141	-1724.3875	-1731.1782	-1740.7219	-1750.5544	-1759.1002	-1765.5560	-1774.3928	-1762.2187	-1768.0967	-1797.4477	-1807.7639	-1814.6093	-1792.1627	-1806.4662	-1826.2845	-1846.4617	-1854.5128	-1861.8287	-1870.3176	-1878.8458	-1886.6453	-1894.6505	-1902.7236	-1906.4373	-1913.7882	-1920.3097
-629.0949	-637.5794	-679.4722	-695.2353	-709.1974	-723.6409	-736.5023	-750.4862	-763.3563	-776.1191	-789.1774	-801.7914	-808.8272	-819.1149	-820.5811	-837.8061	-846.7196	-869.3697	-888.4417	-900.1475	-912.6237	-918.3048	-929.7414	-939.3333	-959.7030	-972.0938	-982.3072	-992.6540	-1000.8255	-1005.6313	-1028.3076	-1039.9412	-1049.8307	-1062.3484	-1073.6078	-1083.5060	-1096.1944	-1106.8104	-1116.8005	-1122.9653	-1131.5286	-1149.6071	-1160.8468	-1171.2417	-1181.4157	-1193.3141	-1202.4266	-1200.3783	-1223.5514	-1233.7231	-1243.6695	-1253.5436	-1263.5447	-1272.1145	-1280.6055	-1294.5961	-1300.2334	-1301.8879	-1310.4730	-1329.2781	-1343.2839	-1352.0441	-1362.5288	-1371.5670	-1381.6118	-1369.2254	-1378.5721	-1384.5508	-1419.1584	-1424.3800	-1430.8796	-1440.8478	-1445.5026	-1465.5572	-1475.9325	-1485.6403	-1493.4485	-1502.6924	-1512.2842	-1520.8650	-1530.2730	-1539.3505	-1539.4359	-1547.5133	-1566.2330	-1575.3915	-1585.4976	-1593.6035	-1600.8537	-1610.5331	-1618.5602	-1626.9921	-1620.1730	-1619.9017	-1648.8128	-1662.7508	-1670.0667	-1679.3346	-1687.3661	-1685.0727	-1699.5096	-1713.7759	-1720.6497	-1728.9263	-1738.8333	-1747.0770	-1755.4980	-1762.2799	-1770.7294	-1768.7182	-1772.5567	-1791.3180	-1804.2625	-1811.9329	-1794.2964	-1816.6292	-1829.6656	-1842.9383	-1851.7248	-1859.7650	-1866.7067	-1876.3598	-1883.6384	-1890.3241	-1894.6177	-1905.1024	-1897.2854	-1919.6466
-626.1690	-643.0395	-676.8548	-692.0709	-705.7091	-720.0235	-734.3686	-747.3349	-760.4676	-773.2917	-785.5249	-786.5228	-804.8289	-821.0079	-825.4963	-842.4894	-852.4663	-856.4536	-885.4545	-896.7774	-908.8443	-918.3704	-929.0849	-941.1737	-956.5233	-969.0454	-979.8671	-989.9535	-999.5343	-1008.4850	-1024.4035	-1036.9234	-1047.4497	-1058.5668	-1070.0407	-1080.2934	-1092.3559	-1103.9633	-1113.0912	-1122.4335	-1133.5813	-1146.6308	-1156.5487	-1168.6047	-1178.6626	-1190.1518	-1198.7742	-1186.3440	-1214.2594	-1231.1189	-1240.7676	-1250.4798	-1261.6823	-1270.9524	-1279.5770	-1291.2237	-1299.4478	-1306.0502	-1314.9286	-1328.4574	-1340.4477	-1348.8622	-1360.0494	-1368.8906	-1378.1738	-1376.2042	-1386.7896	-1389.5798	-1415.3878	-1423.8198	-1425.4304	-1441.7866	-1448.5094	-1463.2572	-1472.8096	-1482.7078	-1490.8947	-1499.2019	-1509.3474	-1518.8144	-1526.4061	-1536.7441	-1541.0050	-1549.4719	-1563.7995	-1572.9886	-1581.7576	-1589.7891	-1598.2036	-1606.7296	-1615.7087	-1623.3703	-1623.7839	-1619.2846	-1637.1989	-1659.1400	-1667.6310	-1675.6559	-1684.5234	-1679.4856	-1698.6146	-1709.8368	-1718.1112	-1726.0113	-1735.2202	-1743.8863	-1752.2526	-1758.9689	-1766.9960	-1771.9768	-1778.0693	-1788.1842	-1801.2534	-1809.7598	-1802.8969	-1820.0913	-1829.9260	-1839.8745	-1848.4750	-1857.2987	-1864.2185	-1872.6701	-1880.4718	-1886.3849	-1874.4909	-1891.3460	-1895.3027	-1917.3138
-623.2825	-649.1867	-673.9158	-689.6636	-702.6956	-715.0733	-727.3700	-744.3258	-757.1390	-770.3111	-782.7325	-771.1536	-786.8489	-811.3526	-828.3216	-843.6339	-854.1361	-860.9114	-882.4017	-894.0703	-905.8199	-916.8145	-919.3246	-933.4070	-953.2822	-965.3951	-977.1950	-986.9772	-998.0615	-1009.0255	-1021.4382	-1032.8924	-1045.0928	-1055.1529	-1066.3401	-1078.0196	-1089.3097	-1100.3524	-1110.2747	-1120.7922	-1131.9509	-1143.7924	-1154.2443	-1165.4687	-1175.7148	-1186.2849	-1196.0080	-1181.9037	-1207.8780	-1228.6066	-1237.5069	-1247.9303	-1259.0015	-1268.9063	-1277.0931	-1288.1206	-1297.3885	-1305.8664	-1315.5939	-1327.1969	-1337.0010	-1346.2930	-1356.2831	-1365.7327	-1374.9393	-1381.1347	-1390.3983	-1396.1232	-1412.4903	-1421.4978	-1418.5435	-1426.9623	-1445.8089	-1460.0468	-1469.2075	-1478.9306	-1488.4699	-1496.6130	-1505.5198	-1515.7682	-1523.2416	-1533.3193	-1540.6154	-1548.4740	-1560.2214	-1569.4653	-1578.3284	-1586.5984	-1595.5512	-1603.5126	-1613.6122	-1620.5101	-1625.1276	-1628.2921	-1636.7240	-1655.6363	-1665.0837	-1672.7366	-1681.3130	-1665.5082	-1693.0035	-1707.0619	-1715.8702	-1723.1007	-1731.3926	-1740.9735	-1749.0904	-1756.2727	-1764.6018	-1763.5711	-1777.9315	-1786.9368	-1797.9314	-1806.9367	-1807.0746	-1819.3144	-1828.4488	-1837.2572	-1844.5293	-1853.4799	-1861.2772	-1868.4902	-1877.4824	-1884.1615	-1870.7443	-1881.0430	-1886.0917	-1903.5640
-620.3106	-650.8543	-670.5544	-686.4970	-700.3847	-712.6529	-708.3483	-724.2625	-744.8489	-767.3173	-780.2443	-771.9108	-788.7879	-798.9815	-827.1705	-841.5549	-853.1491	-863.2421	-879.5217	-890.7308	-903.0887	-914.3131	-903.1982	-915.6699	-947.4829	-961.8542	-973.8971	-984.7713	-995.3610	-1007.2441	-1019.1075	-1029.7695	-1038.2890	-1045.9900	-1062.8889	-1075.2885	-1086.4910	-1096.7919	-1107.9965	-1118.8620	-1129.0447	-1140.5908	-1151.9727	-1162.3677	-1171.9989	-1182.4573	-1193.7058	-1190.9878	-1209.5280	-1225.2015	-1234.4738	-1244.2757	-1255.7517	-1266.2211	-1274.9419	-1285.7593	-1294.6946	-1304.3214	-1313.5543	-1324.6649	-1333.7753	-1343.5159	-1352.6569	-1362.3166	-1371.7705	-1381.9795	-1391.0132	-1397.3881	-1410.3741	-1419.0009	-1422.4695	-1427.2293	-1445.6514	-1456.9086	-1466.3954	-1473.4749	-1485.5549	-1493.8425	-1501.1539	-1512.2886	-1521.4384	-1529.4151	-1539.3265	-1546.5745	-1556.9235	-1565.6159	-1575.5885	-1583.7797	-1592.4261	-1601.1185	-1610.0757	-1618.2691	-1624.4164	-1630.9926	-1639.4289	-1652.8417	-1661.6304	-1670.1805	-1678.4527	-1659.4748	-1679.0261	-1704.2125	-1713.2025	-1720.0326	-1728.8475	-1737.8091	-1745.2431	-1754.0427	-1762.3500	-1744.6347	-1763.9103	-1785.3743	-1795.0055	-1803.3762	-1807.7596	-1817.4148	-1826.6106	-1834.1343	-1841.0388	-1850.0397	-1858.1981	-1865.5424	-1874.6266	-1881.4697	-1879.0165	-1887.5076	-1885.3542	-1888.3567
-617.9821	-650.1649	-667.8823	-683.2034	-697.4040	-710.7468	-708.3352	-710.7884	-730.5804	-764.5927	-777.2921	-779.5462	-792.9218	-805.2185	-820.5636	-838.8303	-851.6632	-862.1151	-876.4842	-887.7436	-899.7755	-911.6017	-900.2110	-905.8024	-931.2974	-959.0334	-970.5116	-981.6506	-992.6605	-1004.8413	-1015.8140	-1022.5280	-1018.7683	-1035.6082	-1058.4136	-1071.3603	-1083.7248	-1093.7456	-1104.9021	-1116.4942	-1126.9044	-1137.7874	-1148.5982	-1159.4462	-1157.1833	-1166.9218	-1190.6902	-1194.8635	-1209.2282	-1221.6497	-1231.6201	-1240.9186	-1252.6879	-1262.6737	-1271.8650	-1282.7524	-1292.3026	-1302.5904	-1310.6021	-1321.2838	-1330.9697	-1340.1392	-1350.5691	-1358.8611	-1368.9693	-1381.3098	-1390.3283	-1396.1276	-1398.0687	-1409.7132	-1422.8065	-1430.9846	-1444.2858	-1453.6829	-1463.6795	-1471.4134	-1474.2058	-1483.0010	-1497.4971	-1508.9141	-1517.4445	-1526.5177	-1536.4159	-1544.7953	-1554.3915	-1562.8475	-1572.5553	-1580.6853	-1589.4390	-1598.2889	-1605.7295	-1615.2491	-1618.1510	-1617.8686	-1639.0963	-1650.1084	-1658.2974	-1667.7754	-1675.8332	-1669.0097	-1678.2120	-1700.4047	-1710.2175	-1716.7697	-1726.3177	-1734.6950	-1741.7241	-1751.0140	-1759.4394	-1742.6061	-1749.4011	-1783.3150	-1791.8914	-1800.0148	-1807.0177	-1815.2811	-1823.6737	-1831.1646	-1838.2923	-1847.4158	-1854.8674	-1862.9010	-1871.6678	-1878.0470	-1881.6776	-1890.0242	-1892.7466	-1894.6681
-615.5420	-648.1122	-665.3854	-680.2250	-694.0689	-708.6219	-714.0754	-719.6011	-724.6323	-761.3298	-774.1911	-782.4699	-795.7689	-808.6784	-820.3098	-836.5960	-849.4726	-860.0579	-873.6064	-885.2619	-896.5541	-908.7655	-909.0172	-912.3282	-931.9758	-956.6174	-967.3099	-978.3636	-990.5728	-1002.3640	-1012.7283	-1012.9406	-1006.5832	-1023.0226	-1046.0250	-1067.8304	-1080.6151	-1090.6096	-1101.9215	-1113.4544	-1124.0858	-1134.6689	-1144.8276	-1156.1001	-1138.6387	-1150.2111	-1186.8517	-1194.7409	-1207.0967	-1218.7828	-1228.5235	-1238.5552	-1249.5826	-1259.4348	-1268.6415	-1279.1240	-1289.6524	-1300.2356	-1307.9038	-1318.4564	-1327.4398	-1337.1432	-1347.9168	-1355.9986	-1366.2688	-1379.0448	-1387.9801	-1391.4903	-1389.1925	-1393.1710	-1414.8932	-1429.8663	-1440.9857	-1450.6038	-1460.6617	-1469.4701	-1463.8065	-1470.5709	-1486.5857	-1505.5899	-1501.4428	-1516.4116	-1527.3208	-1542.3815	-1551.5466	-1559.9238	-1569.2946	-1576.8031	-1586.2089	-1594.7656	-1602.5673	-1611.4391	-1616.3740	-1604.3399	-1627.2263	-1646.3903	-1655.1702	-1664.4556	-1672.7475	-1674.1459	-1681.7879	-1697.1855	-1706.4206	-1713.4980	-1722.8228	-1731.7778	-1739.1550	-1746.9960	-1755.7650	-1752.7122	-1745.8537	-1779.8047	-1788.8254	-1797.3471	-1804.4113	-1813.4210	-1819.7039	-1828.1446	-1835.3511	-1844.1704	-1851.8561	-1859.6644	-1868.1948	-1874.9833	-1881.4850	-1889.6872	-1894.9635	-1899.4125
-612.5789	-644.8755	-661.7985	-677.1940	-690.8497	-705.0613	-715.6292	-725.2735	-732.3290	-757.6314	-771.6876	-782.7259	-794.0138	-808.2100	-812.3505	-831.5823	-846.3519	-852.8515	-870.2472	-881.8458	-893.4291	-905.6754	-912.3173	-919.6747	-935.6895	-953.8578	-964.1389	-976.1249	-987.9248	-999.1689	-1010.5771	-1015.5295	-1010.2926	-1025.2154	-1036.6805	-1065.2831	-1077.6848	-1087.4648	-1099.1444	-1110.7518	-1120.2845	-1130.9464	-1142.5013	-1152.3666	-1137.5489	-1139.6104	-1177.3999	-1179.7393	-1204.5253	-1215.8766	-1225.1227	-1235.4870	-1246.2277	-1256.8853	-1265.9541	-1275.7757	-1286.0022	-1297.0318	-1304.7853	-1315.8456	-1324.2819	-1334.7119	-1344.3825	-1352.8889	-1363.1635	-1374.7730	-1385.2686	-1373.4249	-1379.2768	-1395.7993	-1402.2529	-1426.4437	-1438.8257	-1447.2030	-1457.5826	-1466.7893	-1467.9907	-1476.1097	-1469.9844	-1499.0181	-1502.3532	-1503.9617	-1508.0190	-1534.3960	-1548.1655	-1556.6478	-1566.4453	-1573.8837	-1582.6155	-1591.3670	-1600.8143	-1608.5657	-1615.8728	-1609.2200	-1617.0524	-1643.3068	-1652.1961	-1661.2518	-1669.1366	-1674.6077	-1683.4029	-1695.2619	-1703.1862	-1709.9900	-1719.2163	-1724.7552	-1736.8243	-1743.5055	-1752.2373	-1756.2902	-1755.6753	-1775.6314	-1783.2537	-1794.5678	-1800.6757	-1810.5213	-1816.6161	-1824.9408	-1832.3770	-1840.5508	-1849.4138	-1856.3861	-1864.9581	-1872.8824	-1880.2114	-1887.7001	-1894.0247	-1892.2630
-610.2023	-641.8665	-658.2336	-674.2112	-687.6831	-701.2578	-714.3468	-726.0176	-736.4410	-754.8412	-768.5713	-780.2749	-791.4030	-805.1659	-799.2813	-813.2390	-838.9901	-850.9388	-866.8508	-867.4810	-882.0734	-902.5329	-912.4814	-921.4999	-935.8515	-950.2184	-961.0511	-973.1618	-984.3752	-995.5492	-1007.6971	-1015.4222	-1018.9587	-1032.1833	-1035.6476	-1062.3572	-1074.7348	-1084.7797	-1096.0215	-1107.8171	-1117.1966	-1127.4603	-1140.0240	-1149.6071	-1147.1604	-1135.3670	-1160.6936	-1173.9882	-1197.8419	-1213.0120	-1222.0895	-1231.7667	-1243.8358	-1253.8959	-1263.0566	-1273.2043	-1283.2251	-1293.3706	-1301.3276	-1312.3594	-1321.6536	-1331.4030	-1340.7060	-1350.1577	-1359.9312	-1370.7660	-1382.3493	-1367.5337	-1370.5428	-1388.4987	-1407.4679	-1424.4019	-1436.3222	-1444.0363	-1453.6807	-1463.3732	-1469.3913	-1477.9195	-1470.4286	-1496.6830	-1504.5722	-1508.8812	-1501.9834	-1529.6493	-1545.1104	-1553.9144	-1563.4012	-1572.3168	-1579.1819	-1588.6949	-1598.1882	-1605.8936	-1614.3278	-1616.1310	-1622.7707	-1640.7223	-1649.6729	-1658.5556	-1665.8562	-1673.1764	-1682.0723	-1692.5899	-1700.7417	-1707.1910	-1708.5368	-1705.7991	-1722.9738	-1731.7406	-1748.0662	-1755.7716	-1759.3299	-1772.4167	-1771.7952	-1790.5302	-1797.9773	-1807.0658	-1814.4123	-1821.6363	-1829.4905	-1837.3579	-1845.8620	-1852.8168	-1862.2095	-1869.9674	-1877.6203	-1885.3323	-1891.7750	-1877.7954
-607.7338	-638.9865	-655.3296	-671.6442	-684.9979	-698.6055	-711.4756	-724.6629	-736.7408	-752.0597	-764.5709	-777.1739	-790.1863	-801.9862	-802.4129	-800.0582	-821.9161	-848.8095	-864.3691	-857.5719	-864.9687	-897.6330	-910.8138	-921.2810	-933.6368	-947.0934	-957.6941	-969.2095	-980.9044	-992.6430	-1003.8324	-1013.5052	-1020.8692	-1033.8771	-1040.5584	-1059.2781	-1071.3909	-1082.0616	-1092.0321	-1101.2803	-1114.8900	-1124.4687	-1136.3868	-1147.1166	-1151.0580	-1138.6146	-1163.3153	-1180.1092	-1195.7060	-1209.5346	-1218.9492	-1228.0967	-1240.9909	-1250.3266	-1259.4808	-1270.3594	-1280.4217	-1290.2958	-1298.3995	-1308.6938	-1318.9947	-1327.0262	-1336.5830	-1347.6607	-1356.9440	-1367.4178	-1378.9813	-1374.9656	-1377.9922	-1384.5684	-1409.9715	-1422.4257	-1432.9870	-1441.1848	-1450.4199	-1460.4232	-1468.4612	-1474.0307	-1476.5824	-1495.1336	-1504.3228	-1510.5291	-1510.2271	-1529.8441	-1542.2633	-1550.6099	-1559.8625	-1569.4850	-1576.0284	-1578.0373	-1588.9269	-1602.6198	-1610.8329	-1617.1443	-1624.8344	-1631.9008	-1635.8990	-1651.8110	-1663.3877	-1671.5045	-1679.1092	-1688.9396	-1697.3584	-1703.9127	-1699.1201	-1704.0090	-1713.6993	-1710.5546	-1731.6115	-1752.5174	-1759.3562	-1770.2436	-1773.5349	-1787.6502	-1795.3600	-1804.0261	-1811.4383	-1818.5944	-1826.7594	-1834.9309	-1842.0039	-1839.0079	-1855.6902	-1865.5096	-1874.0357	-1882.3735	-1888.7637	-1869.9981
-604.5693	-635.8024	-652.8457	-668.6811	-682.7570	-695.7562	-709.2302	-722.2885	-735.3599	-748.7267	-760.7915	-774.9943	-786.5425	-799.8941	-805.9997	-807.6410	-814.7906	-845.8508	-861.4323	-862.4871	-860.7035	-883.0166	-908.2031	-920.3116	-931.3127	-943.8195	-954.4486	-965.9378	-977.7005	-990.0848	-1000.8189	-1010.9666	-1020.8386	-1032.4853	-1041.3637	-1056.3522	-1067.8304	-1078.8381	-1088.8304	-1096.5971	-1105.8322	-1114.2817	-1132.3470	-1143.5101	-1151.8961	-1150.6772	-1168.3574	-1181.8752	-1193.7955	-1206.2520	-1215.7147	-1224.9213	-1237.1830	-1246.9237	-1256.4039	-1267.0002	-1276.9203	-1287.6479	-1296.5525	-1306.0021	-1315.3029	-1324.9691	-1325.3608	-1337.8982	-1354.5192	-1363.9819	-1374.9765	-1378.3730	-1384.3517	-1391.8995	-1409.7089	-1420.3642	-1429.5206	-1438.4209	-1447.6363	-1457.4097	-1465.6250	-1463.1302	-1464.5221	-1492.8795	-1502.1562	-1509.9142	-1514.7265	-1528.4478	-1538.9522	-1548.2114	-1556.6084	-1565.2110	-1573.2250	-1563.9111	-1568.9510	-1598.7288	-1607.2723	-1615.8312	-1623.9546	-1630.2573	-1622.8648	-1633.4020	-1659.7483	-1668.7099	-1676.5291	-1675.4590	-1681.6128	-1701.2341	-1702.8338	-1710.8960	-1718.9625	-1714.6929	-1720.4396	-1740.7875	-1758.6209	-1767.6000	-1773.2329	-1785.1182	-1792.8586	-1801.2074	-1807.7661	-1815.9967	-1823.5971	-1832.4011	-1839.3209	-1825.3500	-1837.5833	-1848.0767	-1871.2258	-1879.2222	-1885.7765	-1873.3441
-601.4311	-633.0953	-650.0227	-665.0637	-679.9361	-692.3116	-706.4794	-719.7193	-732.7557	-745.4791	-758.3667	-772.3923	-784.6124	-797.5284	-805.9735	-813.5476	-822.7739	-844.6997	-858.0512	-864.0562	-869.7329	-884.4916	-904.9773	-917.0880	-929.3497	-940.3049	-952.1048	-963.7253	-974.9103	-986.6752	-998.4226	-1008.5769	-1020.3309	-1030.6317	-1040.1951	-1053.6057	-1065.1518	-1075.4220	-1086.4385	-1095.6867	-1098.9037	-1105.4558	-1129.7363	-1139.8664	-1150.2898	-1155.5924	-1169.2656	-1180.8095	-1191.6005	-1203.3567	-1212.4167	-1221.8904	-1234.0689	-1244.4726	-1253.7274	-1264.0743	-1273.5982	-1284.3937	-1293.6244	-1303.4854	-1311.8736	-1318.9247	-1321.9119	-1335.8849	-1351.9369	-1349.7507	-1361.5616	-1377.5501	-1386.1112	-1393.8363	-1407.5795	-1417.4515	-1426.3627	-1435.5146	-1445.0977	-1454.0089	-1462.4300	-1466.0496	-1455.9129	-1490.4132	-1498.9327	-1507.2377	-1515.6697	-1525.9968	-1535.1619	-1546.0449	-1553.3126	-1561.7139	-1570.8374	-1569.0648	-1559.3220	-1592.4655	-1604.7425	-1613.6472	-1621.6065	-1629.2725	-1628.9311	-1626.5370	-1647.9221	-1665.2369	-1673.6513	-1665.3113	-1667.6726	-1698.6343	-1702.8426	-1713.1719	-1721.0830	-1721.7877	-1728.7687	-1742.6892	-1756.4959	-1758.6340	-1771.3268	-1781.6715	-1789.7883	-1798.0758	-1804.8971	-1812.4471	-1819.7893	-1828.9522	-1836.5438	-1830.9589	-1839.6732	-1837.6117	-1868.1095	-1876.0250	-1882.9338	-1881.3953
-599.3740	-630.3598	-647.0880	-661.8883	-676.3427	-689.2456	-702.5818	-712.3181	-727.4072	-742.5160	-756.4825	-768.4772	-778.8131	-794.5653	-803.8792	-814.1866	-825.5882	-842.4171	-855.0574	-863.6776	-873.1972	-886.1220	-901.9836	-913.8360	-926.8418	-937.0639	-949.4787	-961.3268	-972.1091	-983.5589	-994.7680	-1005.5678	-1017.8711	-1028.5549	-1038.1511	-1050.3493	-1062.4403	-1072.2291	-1083.5454	-1093.9404	-1081.7027	-1100.9126	-1127.0992	-1135.5946	-1146.9875	-1155.9578	-1167.8869	-1178.8574	-1189.4537	-1200.2338	-1209.6090	-1218.6362	-1231.1036	-1241.8772	-1249.7839	-1260.8507	-1270.5082	-1280.8331	-1289.6328	-1299.4215	-1309.0243	-1304.3170	-1306.0896	-1336.0053	-1349.1839	-1341.3691	-1346.9539	-1364.5947	-1385.1724	-1393.5387	-1404.3648	-1414.1557	-1423.9708	-1432.0000	-1442.1630	-1450.5819	-1459.5172	-1467.4064	-1464.9663	-1487.5770	-1496.4116	-1503.7450	-1514.4967	-1523.5655	-1532.2907	-1542.0379	-1550.6690	-1559.2914	-1568.2420	-1571.5727	-1557.2539	-1590.4062	-1603.0049	-1611.1043	-1619.2473	-1627.4342	-1631.4762	-1633.5486	-1648.7384	-1662.1950	-1670.3403	-1670.8239	-1670.2921	-1694.9074	-1702.4049	-1712.0230	-1720.1923	-1724.2387	-1732.2899	-1743.0810	-1753.1083	-1754.8349	-1766.8099	-1778.0299	-1786.1884	-1794.8632	-1802.5271	-1809.3002	-1817.0406	-1825.2909	-1833.0314	-1834.6355	-1843.0674	-1845.8642	-1864.3541	-1872.8386	-1880.3668	-1883.6953
-597.3716	-626.9940	-643.9148	-659.2053	-673.2658	-686.3832	-699.4240	-696.0713	-709.5497	-734.0228	-752.8760	-765.0042	-761.6471	-782.4852	-800.8395	-813.2456	-825.8049	-839.0120	-852.3263	-862.5943	-873.3219	-884.9030	-899.6201	-911.3806	-923.5701	-934.8339	-946.3406	-957.6919	-968.9863	-980.9613	-991.4328	-1002.3311	-1014.2974	-1026.1170	-1035.3784	-1046.8916	-1059.0833	-1069.4257	-1080.0614	-1091.9642	-1075.0368	-1085.8520	-1122.3438	-1124.1317	-1131.6161	-1151.4869	-1165.1776	-1176.3495	-1186.7795	-1197.2445	-1206.8997	-1212.0250	-1226.8515	-1238.8900	-1246.7683	-1256.8503	-1267.6129	-1277.7715	-1286.9322	-1295.4145	-1304.4308	-1306.3807	-1295.7559	-1323.8683	-1346.8773	-1346.5031	-1351.3329	-1357.6640	-1371.9872	-1391.5603	-1400.6357	-1411.2429	-1420.9004	-1419.1365	-1430.8971	-1445.0671	-1456.6000	-1465.4587	-1469.8334	-1484.0252	-1493.9497	-1501.4778	-1511.4198	-1520.8059	-1530.0213	-1537.0790	-1548.2333	-1555.9737	-1564.9265	-1571.5968	-1566.8217	-1589.0232	-1599.9105	-1608.0470	-1616.9386	-1625.3530	-1631.3865	-1637.6081	-1648.7494	-1659.2931	-1667.1167	-1672.9051	-1676.4416	-1691.9946	-1700.7724	-1709.6639	-1717.6034	-1723.9717	-1732.8370	-1742.1378	-1749.8475	-1755.6250	-1765.6019	-1775.0559	-1783.1683	-1791.3924	-1799.3539	-1806.8711	-1814.9529	-1822.1703	-1830.3287	-1835.5743	-1843.6320	-1848.4072	-1861.3538	-1869.8099	-1877.8479	-1882.8112
-594.3472	-623.6807	-641.0020	-656.3166	-670.9636	-684.1138	-696.8263	-696.1063	-696.7256	-717.8920	-744.8686	-762.7807	-752.0881	-766.4901	-790.3110	-811.3482	-824.1658	-836.0817	-848.9277	-860.9027	-872.1774	-883.3405	-895.2126	-902.7867	-918.0772	-932.5798	-942.8216	-953.8490	-966.0560	-977.7684	-988.8002	-999.4534	-1010.9535	-1022.9898	-1032.4569	-1043.8563	-1055.6934	-1060.8231	-1076.6388	-1089.3075	-1084.8956	-1082.5584	-1118.9933	-1120.6215	-1115.7698	-1135.1285	-1161.3939	-1173.0209	-1183.8163	-1193.6292	-1203.4245	-1197.6931	-1209.8453	-1232.8828	-1244.5361	-1253.7231	-1264.9846	-1275.1258	-1284.2777	-1292.9788	-1287.8470	-1308.4925	-1296.6160	-1311.2587	-1343.5815	-1347.8446	-1356.2546	-1363.1219	-1362.2246	-1389.2866	-1397.8564	-1408.0216	-1417.5368	-1410.4223	-1415.7751	-1427.8333	-1453.7135	-1461.7494	-1470.0741	-1480.6879	-1489.4547	-1499.0290	-1508.1941	-1517.7881	-1527.3711	-1534.3500	-1545.2374	-1552.1243	-1561.3528	-1569.9249	-1572.0345	-1586.2767	-1596.2493	-1605.2327	-1613.8463	-1622.4928	-1630.0953	-1637.2689	-1647.4166	-1656.2950	-1664.5213	-1671.9487	-1677.4285	-1689.5502	-1697.8530	-1707.3660	-1714.9861	-1721.8687	-1730.9353	-1740.0960	-1746.9457	-1754.0843	-1763.3654	-1772.5895	-1780.0630	-1788.1645	-1795.7955	-1803.5950	-1811.3507	-1819.4719	-1827.0285	-1834.2328	-1841.8157	-1835.7341	-1850.5518	-1866.6104	-1874.5303	-1880.5375
-591.3119	-620.8161	-638.3300	-653.3294	-667.5103	-681.5709	-694.4803	-701.3870	-695.1762	-710.0006	-729.6481	-759.9796	-757.2068	-769.5955	-789.2584	-808.5033	-821.4302	-833.6263	-845.2686	-857.5194	-869.8752	-880.8041	-891.9103	-894.1994	-899.3334	-927.0694	-939.5499	-951.1179	-963.4999	-974.0721	-985.4344	-996.7441	-1008.2880	-1019.6415	-1029.9074	-1040.9720	-1052.6187	-1042.7205	-1068.9881	-1086.0489	-1089.3162	-1091.9992	-1117.0500	-1123.2826	-1121.8054	-1130.7035	-1150.8304	-1169.3684	-1180.6782	-1190.8346	-1199.9690	-1188.5630	-1195.1808	-1215.4543	-1242.2054	-1251.4012	-1261.8005	-1272.1057	-1280.9250	-1290.3024	-1274.3138	-1307.7594	-1306.6805	-1318.0427	-1340.8373	-1346.3783	-1356.8783	-1364.3956	-1368.1246	-1387.1004	-1395.1734	-1404.5420	-1414.3045	-1415.2040	-1418.6026	-1426.5093	-1450.7548	-1458.7622	-1467.9316	-1478.1603	-1486.5813	-1495.5822	-1505.6052	-1514.1487	-1524.3730	-1532.5577	-1541.7250	-1548.9183	-1558.0834	-1567.0077	-1573.2710	-1583.0247	-1593.0586	-1602.4491	-1610.2333	-1619.1314	-1627.7668	-1634.6822	-1644.8058	-1652.5375	-1661.7901	-1668.4166	-1676.7808	-1686.3616	-1695.0518	-1704.5452	-1711.8917	-1719.1397	-1727.7708	-1736.6733	-1744.3874	-1751.2613	-1761.1201	-1769.3726	-1776.6294	-1785.2386	-1792.8783	-1799.5946	-1807.9521	-1816.2003	-1823.1047	-1831.5279	-1839.5857	-1827.5844	-1834.6749	-1861.1262	-1870.7837	-1878.0295
-588.4144	-617.8814	-635.5551	-650.4363	-663.8841	-677.4807	-691.7185	-702.8751	-703.2143	-708.2476	-721.9778	-756.3840	-762.4393	-774.2984	-790.4445	-805.8465	-818.5984	-830.3590	-842.2027	-853.4533	-862.5659	-877.8695	-889.1529	-896.7949	-886.6866	-908.1965	-936.8735	-948.2817	-960.5718	-971.2754	-981.9767	-993.9561	-1005.4868	-1016.7025	-1027.3863	-1038.1861	-1049.3645	-1036.1531	-1051.9075	-1076.2405	-1090.1544	-1097.0807	-1114.3692	-1123.5365	-1127.7711	-1137.3519	-1151.6773	-1166.4732	-1177.5137	-1188.3726	-1196.9884	-1195.5900	-1201.7001	-1214.7343	-1239.1613	-1248.7838	-1258.1546	-1268.6787	-1277.8460	-1287.0745	-1280.8638	-1303.2819	-1310.3789	-1321.2466	-1338.6751	-1343.4065	-1355.8957	-1363.3145	-1369.7200	-1383.5989	-1392.6567	-1401.5067	-1410.9497	-1416.3091	-1423.2354	-1432.1051	-1447.9623	-1456.6722	-1465.6819	-1474.9499	-1484.0471	-1491.9035	-1502.6705	-1510.4941	-1521.0204	-1529.5793	-1537.8909	-1546.9049	-1555.6761	-1563.5128	-1572.1133	-1580.3789	-1589.6140	-1599.1993	-1606.8872	-1616.1989	-1624.8322	-1632.2422	-1641.5539	-1649.3971	-1658.2274	-1655.2665	-1668.9594	-1681.3283	-1692.8634	-1701.3326	-1708.2239	-1716.7806	-1724.8055	-1733.2090	-1741.5535	-1748.3529	-1758.2117	-1766.2803	-1773.2504	-1782.2273	-1790.2479	-1796.4673	-1805.3042	-1812.6901	-1820.3758	-1828.4138	-1837.5132	-1834.7536	-1839.0583	-1859.2573	-1867.0612	-1874.9679
-584.6547	-614.8614	-632.4453	-647.1734	-660.8269	-674.4366	-688.4272	-700.7545	-707.7640	-716.9794	-729.3396	-753.1452	-763.5686	-768.6041	-788.7200	-803.5465	-815.9067	-827.2427	-839.5241	-850.5011	-845.9843	-863.0626	-886.2752	-896.9502	-881.9224	-895.7160	-925.8307	-945.0341	-956.7859	-968.6733	-979.1580	-990.5903	-1002.3946	-1013.5205	-1023.2786	-1035.5841	-1046.1738	-1044.9308	-1051.6711	-1064.4252	-1089.4826	-1097.8248	-1111.5505	-1121.9149	-1129.5590	-1138.9363	-1151.6795	-1163.9959	-1173.6468	-1185.0659	-1194.1894	-1198.5794	-1208.2587	-1219.9296	-1235.4038	-1245.6719	-1255.0558	-1265.7046	-1267.6239	-1282.7830	-1286.0503	-1302.1045	-1311.0354	-1320.5113	-1336.4670	-1341.0977	-1353.8343	-1360.9488	-1369.2188	-1379.8392	-1389.8337	-1399.1301	-1407.8575	-1415.3200	-1423.8898	-1432.6872	-1445.2750	-1454.1096	-1463.1390	-1471.8007	-1480.5456	-1489.2643	-1499.1887	-1506.4784	-1517.4379	-1526.0756	-1534.9606	-1544.1060	-1553.1944	-1560.4884	-1569.6207	-1576.4398	-1586.2658	-1595.9232	-1604.2480	-1613.7085	-1621.8406	-1630.9204	-1638.7264	-1646.6682	-1655.0564	-1643.2455	-1651.3229	-1667.6354	-1689.8587	-1698.0609	-1705.1164	-1713.6446	-1722.4464	-1729.7863	-1738.0060	-1745.1228	-1754.6161	-1756.1020	-1761.7328	-1778.6646	-1786.7376	-1794.2264	-1791.4537	-1798.6908	-1817.9269	-1825.1859	-1834.1146	-1837.6620	-1842.9536	-1857.0755	-1864.2951	-1871.4840
-582.7640	-611.8742	-628.5894	-644.1752	-658.3999	-671.9003	-685.4400	-698.2772	-708.8101	-720.0366	-731.5236	-749.0988	-761.9951	-758.7562	-774.4384	-800.3405	-813.4754	-823.9447	-837.1387	-848.3280	-847.5118	-847.3367	-883.5112	-895.3724	-891.9957	-899.0883	-913.1817	-942.0753	-953.2691	-965.7430	-976.8339	-986.2332	-999.2302	-1010.5049	-1007.3339	-1028.0253	-1043.6790	-1048.9444	-1057.5427	-1068.0667	-1087.6158	-1096.9144	-1108.6815	-1118.9846	-1128.9878	-1138.5052	-1149.7537	-1161.3304	-1170.5786	-1181.3675	-1191.1563	-1198.5509	-1209.4186	-1220.5073	-1231.8411	-1242.8204	-1252.6376	-1261.9559	-1252.4888	-1267.2650	-1286.9257	-1300.8615	-1310.2038	-1318.7693	-1333.1734	-1339.2901	-1350.8843	-1358.0032	-1367.5337	-1376.8520	-1386.3322	-1396.3070	-1404.7499	-1413.1709	-1422.1960	-1425.6558	-1442.1740	-1450.7942	-1459.6747	-1469.2491	-1477.2017	-1486.7410	-1496.6371	-1502.3160	-1513.9649	-1523.4189	-1532.1703	-1540.0267	-1549.0737	-1557.6347	-1566.6554	-1573.8750	-1582.9744	-1592.8770	-1601.3002	-1610.5178	-1618.9191	-1628.5591	-1635.9384	-1643.9436	-1651.6468	-1649.6619	-1649.0229	-1661.8974	-1686.3091	-1694.8133	-1702.2955	-1710.2613	-1718.4197	-1726.8386	-1734.1413	-1728.6374	-1747.8605	-1746.0791	-1745.7180	-1775.4323	-1782.9232	-1791.6244	-1785.6128	-1783.3565	-1812.0270	-1822.1265	-1830.6438	-1836.7845	-1843.5139	-1854.5041	-1861.8243	-1868.8185
-580.4705	-608.9002	-625.2761	-641.2078	-655.1348	-669.0137	-682.3543	-696.1041	-707.7027	-719.7390	-731.4317	-733.8171	-748.7311	-763.7546	-770.8100	-795.3575	-810.4597	-820.4301	-833.9064	-845.7720	-851.7485	-844.8660	-881.2090	-892.5515	-897.4295	-906.8178	-917.8343	-939.5981	-950.3848	-962.7668	-973.7964	-975.7791	-995.6630	-1007.1128	-994.6301	-1008.5419	-1040.1601	-1048.3644	-1059.2387	-1069.2835	-1084.4777	-1094.9864	-1105.7534	-1115.7764	-1126.1604	-1137.0280	-1147.2895	-1158.3257	-1168.2655	-1178.7152	-1188.6768	-1197.1000	-1207.8998	-1219.1571	-1228.9677	-1239.9886	-1249.5760	-1258.9534	-1245.2605	-1253.3291	-1278.0538	-1298.8285	-1307.8688	-1316.4627	-1330.0900	-1336.6071	-1347.9934	-1354.8759	-1364.6822	-1373.9852	-1382.9796	-1393.3614	-1401.8481	-1409.9977	-1419.4232	-1410.2056	-1434.7049	-1440.0490	-1455.9566	-1466.2181	-1474.8558	-1483.5481	-1494.3064	-1494.1029	-1510.1987	-1520.0815	-1529.1963	-1537.2124	-1545.5919	-1554.7613	-1563.6157	-1571.2839	-1580.5190	-1589.4543	-1588.2528	-1598.2998	-1616.3346	-1624.1078	-1632.4216	-1640.7682	-1648.6465	-1643.9064	-1654.6887	-1666.2917	-1682.3284	-1691.8130	-1699.6628	-1707.0159	-1715.2662	-1723.7113	-1731.3073	-1723.8382	-1730.6223	-1747.9611	-1751.4473	-1772.8587	-1780.4613	-1788.0726	-1789.4272	-1783.4331	-1809.5015	-1819.3013	-1827.5581	-1834.1562	-1837.4738	-1848.7792	-1858.9728	-1866.1355
-577.9385	-606.2938	-623.1774	-638.0521	-651.8610	-666.2717	-679.1177	-693.5962	-705.5362	-717.5790	-730.8780	-733.4275	-741.3890	-753.2283	-773.4733	-793.3595	-807.0261	-818.0973	-829.9760	-842.7717	-852.4401	-853.8779	-878.0095	-889.5271	-899.1408	-908.8662	-919.9352	-936.5015	-947.6864	-959.0640	-970.3825	-975.3239	-992.6015	-1003.7689	-997.6742	-1005.4190	-1035.3084	-1046.6881	-1058.0088	-1068.5569	-1080.9062	-1091.3558	-1102.8560	-1112.7498	-1123.0988	-1133.1239	-1138.1573	-1155.0387	-1165.9217	-1176.1678	-1186.4840	-1194.5549	-1205.4094	-1216.5835	-1226.1512	-1236.1895	-1246.6895	-1255.9749	-1252.5851	-1254.2767	-1265.5033	-1295.0863	-1303.8793	-1313.6812	-1327.2538	-1332.7752	-1345.7765	-1352.0704	-1361.2814	-1371.3460	-1380.0821	-1390.2582	-1398.8478	-1406.3562	-1417.2479	-1406.3496	-1415.0792	-1421.3293	-1451.0436	-1462.7692	-1472.1728	-1480.2393	-1490.4395	-1494.3655	-1503.2701	-1509.1395	-1526.5921	-1534.5491	-1543.0293	-1552.1134	-1560.9370	-1568.6775	-1578.4925	-1586.1607	-1574.6737	-1578.4641	-1607.4956	-1620.5166	-1629.3513	-1637.6300	-1646.3158	-1630.2419	-1641.9565	-1667.5741	-1679.4397	-1688.9155	-1696.9492	-1703.7442	-1712.3184	-1706.6461	-1728.6703	-1729.1605	-1732.9552	-1748.6089	-1755.3974	-1770.0203	-1777.8067	-1784.5558	-1790.7052	-1791.0992	-1807.5910	-1816.8677	-1824.9342	-1832.0334	-1819.6689	-1830.7182	-1846.7090	-1862.6909
-575.4722	-603.1600	-620.3325	-634.7607	-649.0948	-663.4311	-676.0845	-690.1670	-703.3872	-715.1171	-728.3986	-735.8195	-746.6499	-749.7903	-772.8562	-790.7596	-804.0367	-816.4056	-826.8728	-839.7801	-851.0570	-856.5740	-874.5562	-886.7938	-897.8956	-908.7327	-920.1606	-932.6017	-945.0844	-955.7179	-967.7104	-975.5406	-989.7872	-1000.7905	-1003.7492	-1011.7785	-1033.6780	-1044.7251	-1055.0544	-1066.6596	-1077.6017	-1087.6530	-1099.9082	-1109.8458	-1120.2057	-1130.9027	-1123.2126	-1139.3149	-1160.9868	-1172.8677	-1183.4006	-1192.1783	-1204.0067	-1213.5875	-1222.5754	-1232.5633	-1244.2013	-1253.2241	-1256.3535	-1262.6015	-1271.0859	-1291.9525	-1300.6777	-1310.2235	-1324.0521	-1329.5604	-1341.6207	-1349.2758	-1358.2921	-1368.0896	-1376.6332	-1386.4920	-1396.0028	-1403.5135	-1415.0617	-1402.3799	-1408.9473	-1415.9086	-1448.1746	-1459.6769	-1469.1987	-1477.1689	-1478.5498	-1491.2295	-1501.8520	-1492.4200	-1515.8907	-1531.7239	-1535.4573	-1545.2286	-1557.4881	-1565.7647	-1576.0065	-1583.3661	-1580.3570	-1577.9279	-1589.8635	-1618.4945	-1626.6617	-1634.3693	-1643.0792	-1627.6158	-1639.8272	-1666.8672	-1676.8880	-1685.4600	-1693.9357	-1701.3063	-1709.6004	-1691.1958	-1712.9049	-1730.4910	-1737.5924	-1748.5257	-1755.7497	-1766.8603	-1774.0448	-1781.7415	-1790.0706	-1793.0972	-1804.5470	-1814.2942	-1821.8967	-1829.5999	-1815.8107	-1830.7138	-1834.8149	-1859.8482
-572.1458	-599.3303	-616.6231	-632.5110	-646.1098	-660.2119	-673.1849	-686.4401	-700.0389	-712.4363	-724.3259	-735.8764	-747.5012	-756.3184	-772.9328	-787.5361	-800.7760	-813.2040	-824.3386	-836.8236	-848.6869	-856.9307	-871.8557	-883.9007	-894.9063	-907.1833	-915.2782	-928.3124	-942.4999	-953.2275	-964.5241	-974.3895	-986.6752	-998.0419	-1004.3729	-1000.2412	-1031.0913	-1041.7445	-1052.4218	-1064.1429	-1075.0281	-1085.6375	-1096.7722	-1106.8039	-1117.6015	-1128.5873	-1123.7794	-1132.7234	-1149.3926	-1169.2437	-1179.4789	-1189.2546	-1202.2625	-1210.6091	-1219.4415	-1229.7840	-1241.1025	-1250.2588	-1246.2890	-1256.4236	-1273.8915	-1289.4993	-1297.9050	-1307.0766	-1321.6886	-1326.5688	-1337.7844	-1346.5512	-1354.7468	-1365.0039	-1373.2674	-1382.8351	-1389.0502	-1398.5195	-1405.6778	-1392.6349	-1413.3460	-1424.9271	-1446.6537	-1456.8779	-1465.9730	-1474.1949	-1475.5582	-1478.7708	-1490.7371	-1481.9222	-1498.0530	-1528.7936	-1530.0673	-1534.7220	-1553.6606	-1558.3919	-1569.2071	-1580.4752	-1583.1035	-1586.8347	-1587.7123	-1615.9604	-1624.1013	-1631.0101	-1639.4223	-1637.4134	-1647.9659	-1664.6832	-1673.8964	-1681.7550	-1690.0688	-1698.9975	-1707.0006	-1691.3490	-1700.5163	-1720.4134	-1736.6536	-1747.5038	-1754.4870	-1763.4398	-1770.5937	-1779.2555	-1787.2235	-1792.5523	-1801.0936	-1810.7467	-1818.9905	-1825.8424	-1823.9823	-1835.4758	-1839.5594	-1856.8326
-569.1848	-596.4131	-613.3624	-629.8543	-643.3130	-656.7542	-670.4450	-683.4310	-696.3689	-709.3900	-721.4503	-734.2416	-732.8936	-752.3639	-766.4398	-785.1792	-796.9900	-808.9716	-821.6294	-833.7248	-845.8836	-856.0969	-869.1202	-881.0405	-892.1051	-904.2770	-903.4695	-912.6981	-936.6328	-950.9034	-961.0204	-971.7108	-983.4254	-994.8161	-1003.3663	-989.4304	-1015.3741	-1038.9411	-1050.2224	-1061.1295	-1072.7084	-1083.1624	-1093.4064	-1104.3485	-1114.6822	-1125.3485	-1128.7165	-1138.0894	-1150.3861	-1166.5454	-1175.3100	-1185.6043	-1198.2139	-1207.5409	-1216.8461	-1227.3373	-1237.2005	-1246.8711	-1248.6875	-1241.1419	-1273.6726	-1286.2713	-1294.7515	-1304.7306	-1318.1916	-1323.0695	-1334.3530	-1343.3671	-1351.5649	-1361.8176	-1371.0877	-1380.2375	-1379.3162	-1379.7998	-1403.7389	-1394.3046	-1403.3887	-1428.8794	-1443.9772	-1454.5385	-1462.5437	-1471.5403	-1477.2302	-1481.9550	-1477.7160	-1478.6155	-1489.3650	-1525.6686	-1531.1221	-1535.4223	-1550.9973	-1539.8757	-1549.9534	-1569.6491	-1583.0926	-1589.3383	-1594.9450	-1612.3626	-1620.7202	-1628.6138	-1636.4592	-1640.6107	-1650.4147	-1661.4137	-1671.1084	-1678.8663	-1686.6899	-1695.9009	-1704.1907	-1700.4507	-1707.2019	-1717.0914	-1725.2804	-1744.6347	-1751.9900	-1760.4373	-1768.0880	-1771.1911	-1782.8751	-1790.6308	-1798.3341	-1806.8360	-1816.2637	-1822.2994	-1826.8075	-1836.6357	-1841.6012	-1853.1757
-567.2350	-594.3166	-610.9245	-626.4141	-640.5206	-653.6905	-667.5366	-680.7984	-693.5853	-706.9959	-719.4239	-731.8103	-719.1131	-735.0273	-760.0058	-779.7957	-794.0926	-805.6693	-818.5197	-830.4618	-842.7191	-854.0157	-865.6056	-877.8344	-889.7679	-900.9091	-906.7346	-898.5106	-918.2829	-947.8571	-958.5169	-968.8659	-980.2938	-991.2490	-1001.9985	-990.1351	-1001.2632	-1030.2772	-1047.1477	-1058.1357	-1069.3382	-1080.0833	-1089.8830	-1101.7990	-1111.7869	-1121.7682	-1128.9309	-1139.1924	-1150.5678	-1163.9565	-1172.5219	-1182.5011	-1194.6030	-1204.6325	-1214.2878	-1224.4005	-1233.7166	-1244.0153	-1249.9130	-1233.6247	-1271.4120	-1282.9493	-1291.8168	-1301.8113	-1314.0204	-1320.1130	-1331.9589	-1340.2376	-1349.2233	-1358.2614	-1368.5798	-1377.8981	-1380.9509	-1379.1630	-1403.0998	-1403.2574	-1408.9385	-1429.5446	-1440.9113	-1451.7877	-1459.4143	-1468.4656	-1477.0770	-1483.3950	-1483.6379	-1489.2774	-1492.8971	-1522.4975	-1529.8813	-1536.3174	-1548.6272	-1527.0188	-1535.7637	-1550.8813	-1572.3343	-1589.1479	-1597.0109	-1608.5788	-1616.5534	-1626.2853	-1634.0585	-1640.6982	-1649.5000	-1658.5578	-1667.7470	-1676.4262	-1681.2276	-1683.3679	-1699.6957	-1703.5385	-1710.6749	-1719.9254	-1713.8744	-1740.4549	-1749.1100	-1757.4041	-1765.3546	-1760.4789	-1778.3670	-1788.6503	-1796.7124	-1803.9123	-1812.4865	-1820.2423	-1825.9715	-1835.1607	-1840.8987	-1850.3570
-564.4447	-591.6139	-608.3531	-623.5188	-637.4831	-651.4255	-664.0679	-678.3648	-691.4297	-704.6368	-716.5089	-729.0026	-722.4154	-734.1147	-750.7160	-768.7442	-791.5715	-803.6209	-815.3049	-827.6300	-839.3140	-850.9629	-862.1610	-874.2980	-887.0717	-897.9547	-907.8814	-902.0164	-907.3693	-944.3994	-956.5539	-966.1698	-977.5583	-988.4785	-999.4271	-999.7466	-1008.0954	-1018.4357	-1044.3531	-1055.2536	-1065.3006	-1076.8663	-1087.2766	-1098.3172	-1109.0054	-1119.3851	-1127.8936	-1138.0106	-1148.9243	-1160.1596	-1170.6290	-1179.8838	-1192.3424	-1202.1006	-1210.6288	-1221.0763	-1231.5851	-1241.0915	-1249.4578	-1241.3673	-1268.2913	-1279.9950	-1289.0703	-1297.7999	-1310.6765	-1317.8589	-1329.3634	-1337.4015	-1347.0195	-1346.9145	-1356.0971	-1375.0225	-1380.9159	-1384.7784	-1402.3755	-1406.3387	-1412.9346	-1428.5336	-1437.8803	-1447.8923	-1456.4775	-1464.8088	-1474.7529	-1482.2570	-1487.5157	-1495.1095	-1501.0248	-1518.5518	-1527.4784	-1535.6258	-1545.5197	-1522.3553	-1532.6277	-1553.8904	-1556.4683	-1588.0187	-1595.6759	-1606.4101	-1613.2752	-1622.8867	-1631.1633	-1639.6959	-1647.4429	-1656.3585	-1664.2937	-1673.3231	-1664.2390	-1665.3397	-1684.1141	-1691.4037	-1710.1191	-1720.2033	-1717.5181	-1735.3230	-1746.3680	-1754.6752	-1761.4024	-1763.1575	-1768.5891	-1785.7857	-1793.8675	-1799.1985	-1808.9282	-1817.9357	-1823.9473	-1832.5368	-1839.0933	-1848.2365
-561.5910	-588.1803	-604.9151	-620.4441	-634.3843	-648.4405	-661.1442	-674.8524	-688.3746	-701.3607	-713.5721	-726.0504	-729.7532	-742.4613	-752.5105	-769.7662	-788.9979	-800.5550	-812.4949	-825.0783	-836.2764	-848.6191	-859.3183	-871.4377	-883.9467	-895.6700	-905.8199	-908.5204	-902.1346	-941.5523	-953.1597	-963.2723	-974.6236	-986.1062	-995.9388	-1002.4384	-1013.1944	-1022.2348	-1041.5410	-1052.1023	-1061.8538	-1073.6428	-1085.1320	-1094.3999	-1105.4033	-1116.3235	-1125.8102	-1135.9229	-1146.5433	-1148.1430	-1163.7880	-1176.8572	-1189.5938	-1199.2425	-1206.6897	-1217.8921	-1229.4601	-1238.0365	-1247.4992	-1246.6523	-1265.8272	-1277.2485	-1286.1357	-1294.5611	-1307.1773	-1314.6047	-1325.7241	-1333.7293	-1344.1440	-1329.5407	-1338.2965	-1358.3949	-1379.8567	-1386.0061	-1400.1521	-1406.3584	-1414.1667	-1423.8942	-1435.2717	-1444.0429	-1453.8536	-1461.9397	-1471.1004	-1479.8650	-1487.6427	-1496.1994	-1503.1760	-1504.6116	-1523.3532	-1533.3433	-1541.8453	-1531.7086	-1543.6836	-1560.7488	-1560.0398	-1582.3857	-1593.3890	-1604.4362	-1610.8635	-1619.0351	-1627.8850	-1637.2843	-1644.8387	-1653.5201	-1661.2737	-1669.7472	-1663.4424	-1659.9628	-1675.5246	-1679.0173	-1708.1473	-1718.6320	-1721.5141	-1732.5547	-1743.5865	-1751.7712	-1758.0672	-1764.1313	-1768.1733	-1782.1901	-1790.0597	-1781.5817	-1798.5047	-1802.4789	-1822.0499	-1829.6568	-1836.2068	-1844.6759
-559.2494	-585.5870	-601.9213	-616.9339	-631.3555	-645.2957	-658.5312	-671.1956	-684.9170	-698.3079	-710.5455	-723.0588	-731.8015	-744.6519	-755.4386	-770.2257	-785.8641	-796.6246	-809.5778	-821.9226	-833.6175	-846.0937	-856.6944	-863.5791	-871.6959	-893.0724	-902.3534	-910.7920	-909.7722	-938.4097	-948.7237	-960.1998	-971.6846	-983.1103	-993.0720	-1002.4274	-1014.5775	-1023.6069	-1038.1270	-1049.1019	-1059.4050	-1070.2573	-1076.5994	-1091.8832	-1102.0703	-1113.0146	-1122.7486	-1132.7891	-1143.9609	-1134.6602	-1143.9872	-1173.8875	-1185.5518	-1195.6185	-1204.2846	-1214.5067	-1225.8908	-1234.4563	-1243.9562	-1235.6643	-1259.8047	-1274.1278	-1282.8049	-1292.0378	-1302.7545	-1310.4052	-1322.8244	-1329.7595	-1340.6097	-1324.3038	-1330.9982	-1353.6264	-1374.4841	-1385.1921	-1396.4186	-1404.6558	-1412.5363	-1421.7079	-1432.6675	-1441.7166	-1451.0458	-1459.3662	-1467.6734	-1477.5979	-1485.7147	-1495.0811	-1502.7821	-1503.3883	-1516.0942	-1530.4918	-1538.8297	-1538.4795	-1549.6448	-1561.7555	-1565.9420	-1580.6131	-1590.9708	-1600.6962	-1607.8435	-1615.6759	-1624.9547	-1633.6033	-1641.5320	-1650.1018	-1658.6607	-1667.1496	-1668.2197	-1665.8737	-1682.0614	-1686.9044	-1705.8801	-1715.4413	-1720.9933	-1730.8434	-1739.8355	-1742.2931	-1755.2945	-1760.8531	-1768.4381	-1778.7324	-1786.5582	-1778.2816	-1784.9979	-1789.4294	-1816.8371	-1826.7134	-1824.5141	-1841.0103
-555.8268	-582.8931	-599.1836	-614.0539	-628.7469	-642.3698	-655.8264	-668.6986	-682.2252	-694.8305	-707.3088	-720.3146	-731.8081	-744.4768	-755.5240	-769.3504	-782.5881	-793.4426	-806.4527	-818.0732	-830.6172	-842.1720	-853.6962	-851.2189	-855.5739	-883.1720	-899.9090	-910.1135	-915.9304	-935.1381	-945.7803	-957.5584	-968.7105	-979.4688	-990.6713	-1001.2129	-1013.0215	-1022.5499	-1034.9407	-1046.5918	-1057.0371	-1066.6443	-1067.1038	-1089.5001	-1099.3173	-1110.3994	-1120.0569	-1129.4649	-1140.7462	-1138.5796	-1132.1019	-1164.1797	-1182.4661	-1191.9310	-1202.2888	-1211.3882	-1221.8269	-1231.3990	-1240.8092	-1228.2915	-1241.2535	-1269.6897	-1279.6339	-1289.8800	-1298.9948	-1306.3194	-1320.1721	-1327.4201	-1336.9988	-1333.6374	-1340.2967	-1357.8062	-1373.2477	-1383.1721	-1392.9106	-1402.4433	-1409.8445	-1419.9156	-1429.6935	-1439.1474	-1447.6385	-1456.6153	-1464.3908	-1475.2847	-1483.5088	-1492.2909	-1500.7272	-1505.7956	-1515.8076	-1527.6841	-1535.7068	-1539.9874	-1550.9579	-1560.0070	-1566.8852	-1578.5538	-1588.4060	-1596.2887	-1604.5784	-1612.9338	-1622.0069	-1630.4870	-1631.6972	-1646.4625	-1656.2863	-1664.0595	-1669.6312	-1655.6079	-1679.4025	-1691.4191	-1703.1249	-1711.7954	-1720.2295	-1729.0423	-1736.4172	-1724.3656	-1739.6539	-1746.3526	-1767.6000	-1775.8415	-1783.1990	-1784.6477	-1790.3332	-1795.4475	-1811.4470	-1823.3520	-1805.7987	-1836.3643
-553.5092	-579.0677	-596.3015	-611.4913	-625.8363	-638.9821	-652.4059	-666.0287	-679.2862	-691.0445	-703.9737	-716.9597	-730.3835	-742.5795	-754.3313	-766.7089	-779.1610	-791.2433	-803.1263	-814.1932	-827.5206	-838.4758	-850.6456	-854.4096	-860.9727	-867.2797	-895.9392	-908.0608	-917.5367	-931.9058	-942.9682	-954.3895	-965.7890	-976.2934	-987.0516	-998.9960	-1009.3450	-1020.2280	-1032.0257	-1043.3442	-1053.7414	-1063.3813	-1070.2858	-1085.8104	-1096.3257	-1106.9177	-1117.4658	-1125.8474	-1137.7349	-1142.4050	-1126.9898	-1144.0025	-1180.6497	-1189.1758	-1199.0411	-1208.4557	-1218.4568	-1227.3264	-1237.8483	-1234.6970	-1241.9691	-1267.6479	-1276.6620	-1286.7616	-1295.8478	-1303.0630	-1316.6487	-1325.3717	-1333.9656	-1338.0011	-1345.8181	-1358.9508	-1371.6567	-1380.5395	-1390.0788	-1399.3795	-1407.9012	-1416.9831	-1426.5925	-1435.6219	-1443.8941	-1453.3283	-1461.7012	-1471.8358	-1480.9177	-1489.3037	-1497.6437	-1502.1650	-1514.4639	-1524.6531	-1533.3521	-1539.4993	-1548.9008	-1558.4335	-1565.6750	-1576.4748	-1585.5458	-1593.4897	-1601.6284	-1610.1807	-1618.7856	-1627.0228	-1614.6145	-1638.5798	-1653.4742	-1660.5077	-1668.3991	-1647.7514	-1661.9477	-1678.5775	-1700.6192	-1709.1015	-1718.4066	-1726.8517	-1734.0822	-1723.5713	-1738.2752	-1745.9434	-1765.4903	-1769.7402	-1778.5005	-1785.9564	-1792.7076	-1799.7631	-1810.6351	-1820.1701	-1806.3458	-1824.2296
-550.2200	-575.5860	-593.3449	-608.7207	-622.4530	-635.9359	-648.8037	-662.4069	-675.9904	-688.4863	-700.5663	-700.4591	-724.1290	-739.9424	-751.6548	-763.9537	-776.6071	-788.0350	-800.4258	-810.8471	-824.6713	-836.0335	-847.4220	-856.4602	-864.6361	-872.2605	-892.9739	-905.2027	-916.8604	-928.9514	-939.3311	-950.5708	-962.3816	-973.7264	-973.0480	-996.1226	-1006.2046	-1010.5727	-1023.3793	-1039.8646	-1050.2596	-1060.6283	-1070.5506	-1082.2717	-1093.2641	-1103.3287	-1114.5880	-1122.8734	-1134.9250	-1142.1905	-1128.3466	-1143.3613	-1177.0695	-1186.6657	-1195.4040	-1205.6677	-1215.5002	-1223.0699	-1221.3739	-1229.6417	-1247.4204	-1265.5099	-1273.3509	-1282.5751	-1292.7272	-1300.0474	-1312.8693	-1322.0278	-1331.5102	-1338.0755	-1346.9451	-1357.7143	-1369.1575	-1377.4735	-1387.2185	-1395.6767	-1405.6975	-1413.4839	-1423.6425	-1432.2123	-1440.9375	-1450.3149	-1459.5894	-1468.2489	-1477.8298	-1487.0803	-1495.0548	-1487.4895	-1511.7918	-1521.2786	-1531.0017	-1538.1206	-1546.5307	-1556.4223	-1564.1475	-1573.1987	-1582.1231	-1590.8439	-1587.7451	-1597.9169	-1615.0150	-1623.9721	-1613.7041	-1621.7159	-1642.0441	-1657.9779	-1665.4054	-1653.3407	-1660.2692	-1675.6450	-1698.4811	-1706.8824	-1714.6666	-1723.4399	-1731.2942	-1729.9286	-1740.9385	-1748.5476	-1762.2077	-1760.4723	-1761.4111	-1777.5638	-1792.7427	-1799.4261	-1809.3352	-1817.2857	-1814.9638	-1825.1968
-547.8369	-573.1371	-590.1630	-604.9654	-617.8552	-632.9552	-646.4381	-658.6035	-672.6027	-686.1797	-697.9249	-690.7163	-704.2538	-730.9875	-747.8120	-761.4392	-774.2218	-784.4417	-797.8829	-808.6565	-820.1325	-833.2258	-844.2445	-855.5389	-865.6669	-875.0902	-890.3719	-902.6795	-914.2343	-926.3319	-936.1207	-947.4435	-959.4098	-970.4459	-965.0296	-993.0129	-1004.0775	-999.9852	-1003.8893	-1029.4697	-1047.7495	-1058.6150	-1068.4803	-1079.4027	-1090.3732	-1100.9739	-1111.4302	-1120.8360	-1131.5592	-1131.2025	-1129.4912	-1151.7495	-1173.6074	-1184.0724	-1191.8850	-1202.8643	-1213.0098	-1221.1704	-1217.8659	-1218.6668	-1238.7302	-1262.4505	-1269.7488	-1279.4019	-1289.2607	-1296.2483	-1309.7705	-1317.7014	-1328.8294	-1335.9790	-1345.5642	-1354.8935	-1365.6145	-1374.3747	-1384.0059	-1392.5495	-1402.1610	-1410.6105	-1410.2975	-1421.0208	-1438.3968	-1447.1395	-1457.0114	-1465.0495	-1474.4772	-1484.6336	-1489.0192	-1478.7271	-1508.9753	-1517.7268	-1527.0691	-1535.4333	-1544.0294	-1553.2295	-1561.8693	-1569.4478	-1579.0724	-1587.4628	-1571.4699	-1576.8643	-1606.7318	-1620.6129	-1620.9828	-1625.3486	-1640.7770	-1655.8070	-1662.7880	-1661.7048	-1668.9703	-1681.1467	-1695.0781	-1704.1600	-1711.4059	-1719.4417	-1727.5432	-1731.6728	-1741.3652	-1748.0968	-1759.3234	-1761.9145	-1759.3890	-1761.7722	-1788.3527	-1792.8214	-1806.8339	-1813.9506	-1817.2901	-1825.8315
-546.0030	-571.0122	-586.9176	-601.5493	-600.5711	-622.6040	-644.0680	-656.9534	-669.4208	-682.4791	-695.2703	-697.7542	-694.4825	-715.6489	-744.4747	-758.6556	-770.6043	-782.1044	-794.9723	-805.6211	-802.2160	-817.4977	-841.1807	-852.6261	-865.1438	-874.3067	-887.9734	-900.0381	-910.9561	-923.3994	-933.6324	-945.1479	-957.7028	-967.2574	-967.0627	-981.6988	-1001.7074	-1004.3686	-1005.5897	-1014.4571	-1045.5786	-1055.9560	-1065.8674	-1077.0458	-1087.6290	-1098.3697	-1107.9265	-1118.1048	-1128.2066	-1118.1770	-1120.1269	-1145.3834	-1170.7318	-1180.9014	-1189.3793	-1199.6999	-1210.3487	-1218.6734	-1222.5272	-1226.2213	-1236.6819	-1259.4370	-1267.2409	-1277.3842	-1286.3239	-1292.0313	-1306.5645	-1314.7820	-1325.1792	-1333.9284	-1343.2423	-1352.0157	-1362.3363	-1371.3591	-1380.9049	-1389.8884	-1398.6596	-1408.7022	-1395.7840	-1404.0409	-1429.0807	-1443.0953	-1454.0024	-1462.2417	-1471.5250	-1481.5742	-1472.4835	-1473.4946	-1495.1402	-1515.1073	-1523.1344	-1532.4330	-1537.5101	-1547.0910	-1555.6980	-1566.7604	-1575.9758	-1584.9133	-1568.5659	-1568.5199	-1599.0220	-1618.0000	-1622.7204	-1629.0668	-1641.1446	-1652.3953	-1660.3305	-1663.3264	-1671.0165	-1682.0133	-1691.0930	-1700.7811	-1709.0599	-1716.2313	-1724.4466	-1731.1891	-1739.4022	-1747.1667	-1756.7586	-1759.8530	-1764.3677	-1756.0189	-1771.4384	-1776.8088	-1802.6671	-1810.5892	-1816.9334	-1824.4747
-543.7226	-568.1410	-584.4906	-599.0217	-588.2634	-605.8364	-635.5332	-654.5593	-666.5890	-678.5312	-692.1081	-700.4744	-699.9470	-716.6030	-742.2906	-755.6049	-767.1532	-779.7453	-791.7028	-802.9819	-801.2640	-806.5140	-832.7378	-849.1071	-862.5834	-872.6763	-885.3648	-897.2325	-907.9098	-919.9658	-931.1420	-942.2154	-954.7397	-965.1544	-969.2029	-970.6166	-994.2975	-1005.5656	-1011.4897	-1017.1708	-1041.4009	-1052.5815	-1062.9830	-1074.3825	-1084.6002	-1095.7699	-1105.0050	-1115.0432	-1125.6746	-1123.1644	-1117.7547	-1137.2206	-1167.3617	-1177.7785	-1186.6985	-1197.1132	-1207.1383	-1216.2311	-1223.7418	-1230.3858	-1239.7128	-1256.5439	-1264.7308	-1274.8894	-1283.8313	-1289.5583	-1302.9733	-1311.0573	-1321.2641	-1322.8135	-1335.4209	-1349.8623	-1359.5285	-1367.9561	-1377.9418	-1387.1594	-1396.0750	-1405.7259	-1399.2504	-1401.2441	-1421.5022	-1439.9856	-1450.6038	-1459.4953	-1469.1812	-1477.9655	-1475.7815	-1482.2110	-1488.1548	-1513.0217	-1520.5455	-1529.6777	-1524.2702	-1534.4288	-1538.2826	-1564.4867	-1572.4787	-1582.3616	-1577.5953	-1577.5756	-1601.2411	-1615.8728	-1621.7290	-1629.6292	-1639.6302	-1648.1344	-1657.4833	-1662.7333	-1670.8677	-1680.2078	-1688.0511	-1697.7852	-1706.7314	-1713.4695	-1721.8949	-1729.5412	-1736.0102	-1745.0133	-1753.7779	-1747.6132	-1765.4137	-1765.0702	-1763.9672	-1767.5343	-1799.8484	-1807.7771	-1815.2483	-1822.0083
-540.1555	-564.5323	-581.6544	-596.2008	-594.6317	-600.0524	-623.7333	-650.2765	-663.6521	-676.6294	-688.6767	-700.2862	-706.0548	-721.1440	-740.1503	-751.9174	-764.8707	-776.2636	-788.2626	-800.2420	-805.6102	-804.2621	-822.1918	-838.3139	-859.7078	-870.9935	-882.0821	-894.4270	-905.6645	-917.2018	-928.0979	-938.4119	-945.9729	-962.0993	-970.0783	-975.6763	-990.5268	-1004.0578	-1013.3520	-1021.3900	-1037.4486	-1049.5002	-1060.4007	-1071.1546	-1081.2213	-1090.8262	-1101.8537	-1111.5987	-1123.3176	-1126.2479	-1128.5370	-1143.9478	-1163.9412	-1174.9576	-1183.4574	-1194.4696	-1203.8666	-1213.5657	-1222.1574	-1230.4164	-1239.4130	-1253.3226	-1261.8705	-1271.4033	-1280.6581	-1287.4334	-1300.3516	-1293.9855	-1306.7680	-1308.1424	-1319.9904	-1346.6497	-1356.8587	-1364.6647	-1375.1188	-1384.2576	-1393.1557	-1401.7693	-1404.5770	-1407.8640	-1424.2684	-1438.0007	-1447.4743	-1456.2652	-1466.1109	-1474.6829	-1478.6198	-1486.5310	-1490.2885	-1510.0477	-1517.9588	-1527.0932	-1527.4193	-1535.3939	-1539.1207	-1561.1690	-1569.4084	-1578.6720	-1581.5235	-1584.7251	-1601.4205	-1613.1679	-1619.3611	-1628.3643	-1636.7547	-1645.0269	-1653.9622	-1662.0024	-1668.7449	-1677.7262	-1685.8868	-1694.8593	-1703.6436	-1710.2941	-1718.8990	-1726.8386	-1733.2134	-1741.8117	-1750.3662	-1734.4564	-1764.1510	-1768.7795	-1770.6353	-1771.4472	-1798.0452	-1804.8205	-1812.3202	-1819.7083
-537.3281	-561.0877	-578.1333	-592.7760	-599.6651	-608.6398	-627.3026	-646.2192	-660.6409	-674.8218	-685.9652	-698.5070	-708.1470	-721.3103	-736.8612	-748.7705	-762.2161	-772.4163	-785.2448	-797.5765	-805.9078	-811.0003	-825.5204	-833.7882	-856.5827	-868.6650	-878.4669	-891.5252	-903.3820	-914.2759	-924.9160	-935.2694	-926.4763	-943.7407	-969.2467	-977.6590	-990.5465	-1001.7578	-1013.0391	-1021.7074	-1034.6300	-1046.5546	-1057.8009	-1067.4584	-1077.7527	-1087.8828	-1085.1604	-1097.2602	-1118.1770	-1120.7944	-1125.6964	-1146.0618	-1161.2144	-1171.9770	-1180.5009	-1191.3970	-1201.0020	-1210.9111	-1210.6332	-1226.1994	-1238.3144	-1240.9558	-1256.5002	-1268.4358	-1277.5330	-1284.3302	-1297.9465	-1289.8910	-1298.6884	-1313.2348	-1324.8268	-1342.9797	-1354.1253	-1361.9598	-1372.2148	-1379.3818	-1384.8835	-1398.9834	-1405.2073	-1410.6149	-1423.3361	-1435.3352	-1444.9073	-1452.9125	-1462.8567	-1471.6300	-1478.3441	-1486.8045	-1492.7023	-1506.3864	-1514.9475	-1523.3357	-1529.1481	-1537.1643	-1543.4341	-1557.8645	-1566.8764	-1575.0830	-1581.7620	-1587.6226	-1599.6589	-1609.7759	-1615.2622	-1621.6940	-1634.6363	-1642.9960	-1650.4651	-1659.7812	-1653.4829	-1665.1712	-1680.7659	-1691.8392	-1699.9167	-1707.5586	-1715.6186	-1723.8798	-1731.1300	-1738.9864	-1747.7948	-1735.0013	-1761.5731	-1769.2260	-1774.0864	-1777.7214	-1794.6531	-1801.5445	-1809.2236	-1817.3317
-535.5752	-558.3128	-574.9820	-589.4539	-600.1640	-612.3032	-628.8366	-643.9126	-657.5574	-670.7667	-683.2997	-695.9838	-708.4096	-720.5246	-733.4275	-745.7242	-758.6797	-766.0371	-781.4829	-793.8322	-804.8486	-812.8801	-826.2251	-836.3115	-853.5387	-865.7019	-875.9196	-888.0237	-900.3051	-910.9014	-921.6399	-931.3237	-917.4557	-928.4153	-957.6941	-976.0680	-988.4632	-999.7926	-1010.8681	-1020.7948	-1032.9361	-1043.4690	-1054.2753	-1064.2064	-1074.4263	-1085.5018	-1076.6563	-1082.1492	-1100.7551	-1110.4651	-1111.2748	-1141.2451	-1158.8268	-1168.4887	-1177.9930	-1188.4974	-1198.1198	-1208.0902	-1211.2219	-1210.4121	-1225.5450	-1225.8142	-1236.4061	-1263.1332	-1274.3642	-1280.8003	-1294.8565	-1295.7669	-1304.6212	-1317.3884	-1327.8447	-1340.3777	-1350.8099	-1359.1390	-1368.9234	-1363.6405	-1365.4219	-1386.9712	-1403.3800	-1409.4966	-1421.3272	-1431.7725	-1441.8282	-1449.4286	-1460.2087	-1469.0455	-1476.4730	-1485.1413	-1492.3718	-1502.6114	-1511.6737	-1519.7533	-1528.4041	-1536.1620	-1543.7930	-1555.6520	-1564.0118	-1572.5181	-1580.3001	-1588.0887	-1597.1093	-1606.5896	-1604.7382	-1607.0601	-1632.3713	-1640.1445	-1647.7055	-1656.1550	-1640.5187	-1648.3948	-1662.6721	-1688.5610	-1696.5969	-1705.1908	-1712.2593	-1720.6650	-1720.1004	-1735.9730	-1744.9236	-1742.1356	-1758.8244	-1767.4052	-1773.7560	-1779.5443	-1790.6243	-1798.6601	-1806.2714	-1814.1169
-533.2511	-555.8333	-571.8131	-586.9176	-599.5469	-612.5308	-627.8978	-641.7330	-654.8328	-666.7684	-679.8355	-693.2964	-706.4882	-718.4850	-730.8518	-743.2470	-754.7514	-757.1850	-768.3349	-787.6411	-803.0191	-812.1054	-824.5531	-836.0073	-850.4224	-862.5965	-873.8603	-883.9773	-896.8014	-907.4415	-917.9240	-913.7594	-920.2962	-923.8152	-943.4956	-971.5292	-985.2287	-996.8229	-1007.8547	-1018.5145	-1030.5770	-1039.9719	-1050.5157	-1061.7006	-1071.4391	-1082.9961	-1081.3526	-1087.3095	-1096.1988	-1115.0739	-1104.3069	-1125.7993	-1155.9578	-1165.2214	-1174.5090	-1185.0900	-1194.5330	-1204.7529	-1212.2964	-1201.3412	-1216.7826	-1218.3583	-1224.3545	-1246.9193	-1271.3048	-1278.6010	-1291.4623	-1296.6948	-1306.4223	-1317.7145	-1327.5842	-1338.5569	-1347.2384	-1356.4297	-1365.2118	-1362.0890	-1356.3334	-1373.0288	-1391.2277	-1409.5622	-1419.1059	-1428.3826	-1438.5719	-1446.8069	-1457.1493	-1466.5836	-1473.5843	-1483.1564	-1490.3344	-1499.7709	-1509.1832	-1517.6590	-1525.9443	-1533.5644	-1541.7994	-1552.4000	-1561.0465	-1569.8023	-1577.7112	-1586.0010	-1594.4351	-1603.6965	-1605.6682	-1607.7232	-1628.8348	-1636.0347	-1644.3528	-1653.6799	-1646.2808	-1650.7715	-1661.9936	-1685.3112	-1693.5593	-1702.5384	-1709.3553	-1717.5487	-1711.4474	-1722.0350	-1736.7192	-1743.5799	-1756.1677	-1764.2386	-1772.5283	-1779.8004	-1787.7750	-1796.3951	-1802.7546	-1810.8934
-530.0691	-552.3866	-568.7975	-584.5322	-598.0063	-611.5066	-625.4665	-638.3716	-651.4123	-664.3174	-677.1262	-685.8361	-704.0568	-715.4825	-727.8296	-740.0650	-751.4272	-758.9992	-768.6960	-773.3223	-800.1457	-811.5167	-822.0868	-834.0683	-847.0697	-858.7865	-870.8512	-869.0392	-887.4109	-904.8635	-915.0725	-913.8185	-916.3155	-926.7105	-948.4436	-966.7278	-982.4253	-993.1398	-1005.4540	-1015.4354	-1026.7648	-1036.6105	-1047.8348	-1058.4158	-1069.3491	-1080.0921	-1084.6484	-1091.7147	-1102.1688	-1117.0500	-1112.8023	-1128.5151	-1152.7037	-1162.5712	-1170.8544	-1181.5448	-1191.0753	-1201.3674	-1211.2241	-1208.3375	-1222.3631	-1221.1616	-1230.4515	-1247.5889	-1268.0440	-1276.7474	-1288.0855	-1295.6706	-1305.8292	-1316.1498	-1324.8465	-1335.9812	-1344.1943	-1353.5979	-1362.3516	-1365.7874	-1363.9229	-1377.9418	-1390.4661	-1406.9602	-1416.5236	-1425.3954	-1436.1011	-1444.3799	-1453.8667	-1458.5280	-1471.4331	-1480.0598	-1488.1329	-1497.2629	-1506.2639	-1515.3808	-1522.7492	-1531.3781	-1539.8495	-1548.2596	-1558.4116	-1566.3774	-1574.5599	-1583.1735	-1591.4611	-1598.8470	-1605.0971	-1611.3450	-1625.2261	-1632.7061	-1640.7441	-1651.3842	-1652.1217	-1657.3279	-1667.7295	-1682.8864	-1690.5087	-1699.0085	-1706.7555	-1714.3755	-1715.6164	-1720.9495	-1728.2785	-1743.5077	-1752.9857	-1760.9997	-1770.6068	-1777.6601	-1785.0963	-1793.7887	-1799.9600	-1807.8996
-527.2264	-549.0821	-566.3443	-581.4400	-595.7041	-608.9658	-622.5668	-634.9358	-647.7839	-662.4047	-674.6555	-671.3838	-694.3315	-711.6222	-724.3281	-726.9367	-737.2485	-755.7691	-769.9325	-769.3876	-796.6465	-809.8120	-819.8962	-831.7858	-844.3605	-855.4295	-867.5029	-861.7365	-869.6607	-897.4054	-912.9235	-917.1165	-924.1150	-927.1460	-952.2668	-966.8920	-980.2238	-990.3715	-1002.7929	-1005.9945	-1023.0401	-1033.9275	-1045.8478	-1055.5381	-1066.5195	-1077.1333	-1084.8650	-1079.1292	-1094.4174	-1116.9472	-1119.6367	-1131.6511	-1148.9396	-1159.9298	-1168.4230	-1179.1550	-1188.8147	-1197.7522	-1209.0882	-1212.4145	-1223.7440	-1228.8474	-1238.4217	-1250.6921	-1265.1225	-1273.8871	-1285.3894	-1293.8323	-1294.5414	-1313.2873	-1321.1919	-1332.2543	-1341.4894	-1350.0002	-1360.6293	-1366.1353	-1369.9279	-1382.1305	-1392.0724	-1404.3669	-1413.9369	-1422.3360	-1433.3197	-1441.1432	-1450.2317	-1441.1148	-1462.0251	-1476.6743	-1485.7037	-1494.0897	-1502.7799	-1512.0544	-1519.7795	-1529.3363	-1538.0090	-1545.7319	-1555.0568	-1563.4121	-1571.2051	-1580.2958	-1588.4914	-1589.3952	-1587.4015	-1607.7560	-1622.3965	-1630.4958	-1638.1552	-1647.7777	-1653.3100	-1659.0918	-1668.2263	-1680.1619	-1687.3399	-1695.5202	-1704.2410	-1711.5722	-1716.4611	-1722.8644	-1731.1235	-1741.5753	-1749.9460	-1758.4786	-1767.3570	-1774.3271	-1782.0041	-1790.0925	-1797.2245	-1804.5098
-525.2524	-546.4341	-563.6285	-578.0173	-592.4586	-605.6942	-619.8795	-632.8261	-645.0462	-658.9799	-671.7383	-675.4608	-681.8488	-695.4016	-711.6594	-723.1726	-729.5956	-738.9292	-768.6479	-774.9505	-793.5126	-806.4987	-817.4517	-829.4705	-842.2114	-852.3044	-864.5157	-867.6736	-871.5821	-891.4551	-910.5315	-918.0509	-928.0936	-934.7835	-952.4659	-965.2353	-977.2432	-987.7103	-999.4731	-990.4787	-1009.2509	-1029.6097	-1042.3813	-1052.6494	-1063.3726	-1073.5443	-1083.0902	-1073.2358	-1081.3548	-1103.1492	-1121.8930	-1133.1830	-1145.3134	-1156.7829	-1165.9676	-1176.2816	-1186.8232	-1194.9116	-1206.2126	-1212.8500	-1222.8423	-1230.8060	-1239.9448	-1250.8847	-1262.1069	-1270.7796	-1283.0763	-1291.3813	-1277.4214	-1302.4109	-1318.7058	-1329.0023	-1338.5701	-1346.4484	-1357.5502	-1364.6603	-1371.2519	-1382.3799	-1391.1314	-1402.2945	-1411.4508	-1419.6158	-1429.6716	-1437.7687	-1444.4477	-1438.7513	-1451.9956	-1473.7791	-1483.3556	-1491.3564	-1499.5958	-1508.4720	-1517.4379	-1521.7929	-1534.8227	-1543.5610	-1551.2424	-1560.7992	-1568.2573	-1577.0350	-1586.1585	-1590.1414	-1579.4204	-1594.4898	-1619.1905	-1627.8237	-1635.7830	-1644.2325	-1651.6468	-1658.5119	-1666.1691	-1676.2731	-1684.6853	-1692.2178	-1701.5492	-1709.0292	-1714.9336	-1722.0831	-1731.4408	-1738.9996	-1747.1449	-1755.6403	-1764.0066	-1772.0249	-1778.9622	-1786.5297	-1794.1695	-1801.5882
-521.8713	-543.6570	-560.4618	-574.6800	-589.0053	-603.0943	-616.7238	-629.9659	-642.5252	-654.9816	-668.3528	-676.6907	-686.6327	-689.7096	-699.6406	-720.1351	-735.1586	-736.8677	-766.3238	-775.9528	-790.8865	-802.6536	-814.2676	-826.6321	-838.7647	-849.2100	-861.1259	-868.9735	-877.0794	-892.0963	-907.0520	-917.5826	-928.6210	-936.6853	-950.9712	-962.6858	-973.9365	-984.4124	-995.8053	-984.6860	-994.8008	-1018.0921	-1039.2716	-1049.3974	-1060.7706	-1057.9541	-1072.3692	-1081.0725	-1088.0273	-1100.1270	-1121.5034	-1132.4871	-1142.6960	-1152.3294	-1162.8032	-1172.8940	-1183.4443	-1192.1652	-1203.8141	-1211.2656	-1220.9406	-1230.5062	-1239.2226	-1249.6154	-1258.4719	-1268.1491	-1280.0015	-1288.2847	-1274.9857	-1287.9389	-1316.8741	-1326.2668	-1335.0796	-1343.5859	-1353.3594	-1362.1809	-1370.3831	-1380.3009	-1389.3194	-1399.4408	-1408.4877	-1416.7140	-1426.0848	-1434.4664	-1426.3868	-1436.7949	-1455.9063	-1471.1661	-1479.1801	-1488.6887	-1496.7333	-1505.5636	-1514.7768	-1513.7877	-1519.7226	-1540.1055	-1547.7934	-1556.8775	-1565.8019	-1572.8858	-1582.4864	-1589.4980	-1587.5613	-1598.7682	-1616.0063	-1623.9546	-1632.8527	-1641.5779	-1649.1301	-1656.8399	-1664.0967	-1673.1896	-1682.0658	-1688.8170	-1689.0818	-1702.6041	-1711.9048	-1719.7306	-1728.9854	-1734.9904	-1744.3306	-1752.4364	-1760.5358	-1769.1275	-1776.4937	-1783.5119	-1791.2742	-1799.5092
-507.9092	-539.9936	-557.8073	-572.2027	-585.9962	-600.7921	-613.1195	-625.8451	-639.4133	-652.5000	-664.8383	-675.9357	-688.2368	-695.8853	-705.6784	-718.1152	-736.2769	-743.6124	-763.7852	-775.1037	-788.7266	-799.7168	-811.6590	-823.2204	-835.0312	-846.4898	-858.0577	-867.9012	-878.8302	-891.0087	-903.5789	-914.8471	-926.1087	-928.3693	-948.5968	-959.8540	-970.8464	-981.1932	-992.4154	-991.2621	-998.5145	-1006.3972	-1036.9212	-1046.0228	-1057.8972	-1045.1015	-1053.8420	-1080.4357	-1093.2269	-1103.0157	-1118.8358	-1129.0250	-1140.4682	-1149.0184	-1159.4965	-1169.6792	-1179.7021	-1186.0901	-1193.1587	-1205.7683	-1217.8856	-1228.4534	-1237.7148	-1247.0571	-1254.8085	-1265.2319	-1276.6970	-1285.7505	-1283.6759	-1291.5979	-1314.3268	-1322.7084	-1331.6788	-1341.2509	-1350.1796	-1359.7014	-1368.3413	-1370.6391	-1387.2710	-1395.7862	-1405.0891	-1413.4707	-1423.1326	-1431.5427	-1421.2856	-1423.1370	-1456.7138	-1468.6538	-1475.5670	-1485.5024	-1493.7483	-1502.4342	-1511.2775	-1515.6172	-1518.0901	-1536.5165	-1545.2308	-1553.5183	-1562.6462	-1557.1008	-1561.9087	-1585.0950	-1590.5813	-1600.8100	-1613.6756	-1620.5013	-1628.8632	-1638.8227	-1646.5413	-1654.0388	-1662.2781	-1670.8633	-1678.6475	-1685.9699	-1679.4375	-1691.4081	-1709.6004	-1716.9075	-1725.8297	-1728.6659	-1741.2296	-1749.3945	-1757.6339	-1765.3809	-1763.4639	-1774.4212	-1788.3330	-1796.6118
-507.1105	-536.8051	-555.0433	-569.6772	-583.0134	-597.5817	-610.6028	-622.3524	-636.1503	-650.1518	-662.0677	-674.1915	-686.9741	-697.5419	-708.2761	-721.1243	-735.1498	-745.1662	-760.8506	-773.1298	-785.8488	-796.8894	-809.1861	-820.4673	-832.2979	-843.6711	-855.4929	-865.9273	-877.4558	-888.8991	-900.7909	-911.3850	-923.0952	-910.4134	-935.6064	-956.2497	-967.2443	-978.7160	-989.6821	-990.4590	-1004.5765	-1012.2206	-1033.4023	-1043.0925	-1054.1725	-1049.3536	-1047.1827	-1070.2289	-1093.5749	-1103.6832	-1115.6844	-1125.8803	-1137.2863	-1146.1078	-1156.2358	-1167.1122	-1176.8813	-1171.3227	-1181.4901	-1188.9919	-1214.8415	-1225.1577	-1234.7867	-1244.6061	-1251.4953	-1261.4722	-1273.1190	-1283.1200	-1286.6850	-1295.4846	-1310.5649	-1319.0144	-1329.0658	-1338.3928	-1347.4791	-1357.1103	-1365.5248	-1356.2043	-1384.7281	-1392.3153	-1401.7780	-1410.4682	-1420.5634	-1428.6518	-1428.9100	-1424.4741	-1453.7507	-1464.7825	-1473.5821	-1482.0294	-1490.7415	-1498.8889	-1507.5507	-1515.8338	-1520.8212	-1533.5403	-1542.9986	-1551.4568	-1558.7924	-1542.6704	-1554.2514	-1565.3730	-1590.5485	-1599.5516	-1611.2334	-1618.4201	-1619.9433	-1635.5313	-1644.0705	-1650.6533	-1659.6696	-1667.7929	-1674.7762	-1682.7945	-1684.0047	-1693.6140	-1707.9438	-1714.3865	-1722.9191	-1724.9259	-1737.5246	-1747.3155	-1755.0188	-1762.3281	-1751.1847	-1757.0956	-1785.0416	-1792.6354
-509.7606	-534.6670	-551.6950	-566.2130	-579.7396	-594.2072	-608.0708	-612.2463	-631.5831	-646.5913	-659.2928	-671.3991	-683.8162	-696.4718	-707.8559	-720.9404	-733.5501	-744.6257	-758.1194	-770.2235	-782.4349	-793.5455	-805.9166	-818.2942	-829.4158	-840.5986	-852.9609	-863.4018	-870.6477	-879.5611	-898.0357	-908.6779	-921.4058	-911.6826	-917.7708	-941.1890	-952.3259	-975.3086	-986.8131	-977.0528	-1004.2197	-1014.6629	-1029.7651	-1039.7946	-1050.7586	-1055.0741	-1056.7592	-1074.3190	-1091.0451	-1102.7181	-1113.7192	-1123.7816	-1133.6273	-1143.3132	-1153.1392	-1164.3066	-1174.2420	-1174.4171	-1185.9588	-1188.4230	-1212.4145	-1222.4922	-1231.2524	-1242.0654	-1248.8210	-1256.5592	-1269.8582	-1279.9972	-1286.7944	-1295.5065	-1307.4858	-1316.3861	-1326.2734	-1335.0796	-1344.3147	-1353.7774	-1363.0562	-1359.7933	-1381.4039	-1390.2320	-1398.8872	-1407.3519	-1417.6112	-1425.6274	-1431.0393	-1434.3854	-1450.9911	-1461.5546	-1471.4353	-1478.5454	-1487.5923	-1495.8821	-1505.0012	-1505.5855	-1517.0243	-1529.3517	-1539.8232	-1548.8176	-1555.9146	-1550.9294	-1562.5740	-1565.8632	-1589.4783	-1597.1028	-1607.7078	-1616.1245	-1619.1073	-1631.8088	-1639.7484	-1646.7535	-1656.0040	-1664.5738	-1671.1850	-1679.6760	-1685.4885	-1694.0123	-1704.8297	-1712.1849	-1719.7875	-1723.1139	-1734.5943	-1744.1971	-1752.2526	-1760.0215	-1757.0912	-1760.4438	-1781.5511	-1789.5979
-509.0078	-532.0825	-547.9069	-562.7137	-576.3147	-590.9070	-604.5474	-610.0097	-614.6907	-642.7637	-656.0671	-668.4820	-670.4450	-690.0400	-705.7988	-718.8352	-731.4558	-743.0172	-755.4780	-767.4005	-779.1720	-791.0003	-802.5245	-815.1626	-826.2863	-837.8412	-849.9037	-860.5897	-855.3113	-863.0342	-883.2923	-905.3516	-918.9854	-919.4712	-921.5218	-938.2128	-951.6168	-965.1587	-983.8500	-967.3603	-987.0473	-1014.1004	-1026.7013	-1037.1707	-1048.3995	-1055.2492	-1061.9720	-1076.4527	-1088.7276	-1099.7922	-1111.4914	-1120.6653	-1130.8064	-1140.7724	-1150.6903	-1160.6367	-1170.7428	-1166.0224	-1187.5870	-1193.2812	-1209.7600	-1219.9252	-1227.8144	-1238.4676	-1245.5296	-1254.0010	-1257.7432	-1272.2852	-1282.3147	-1294.3597	-1304.5993	-1314.3509	-1323.1133	-1332.4119	-1341.2246	-1349.9892	-1360.5374	-1363.4392	-1378.0425	-1387.8619	-1395.6724	-1404.5595	-1414.3286	-1423.1020	-1430.2931	-1437.3266	-1448.6167	-1459.0948	-1467.9163	-1475.8034	-1484.1040	-1492.9715	-1502.3182	-1486.3909	-1497.9873	-1513.2581	-1535.6762	-1544.9332	-1553.7941	-1555.4879	-1566.1061	-1571.4108	-1587.0777	-1594.7327	-1603.6024	-1611.4807	-1618.0853	-1628.3752	-1635.5729	-1643.5147	-1652.3340	-1661.4772	-1667.9658	-1676.6823	-1684.4927	-1692.6074	-1700.9058	-1709.1190	-1716.7149	-1721.9956	-1732.3249	-1739.6780	-1748.8059	-1756.8724	-1759.6363	-1765.1314	-1778.8265	-1787.3198
-506.8741	-529.3470	-545.0751	-559.5887	-573.7455	-588.1847	-601.6193	-610.7166	-610.7538	-626.5498	-650.6661	-665.7618	-658.1176	-674.4432	-703.2471	-715.9771	-728.8888	-740.3057	-752.5784	-765.0239	-775.9747	-788.2692	-799.5483	-811.7531	-823.1525	-835.1560	-846.0959	-857.6988	-845.4831	-853.5627	-865.8266	-889.9473	-915.0397	-922.3030	-928.4984	-942.3511	-954.2823	-945.9729	-980.4448	-973.0151	-983.8434	-1012.1724	-1024.3116	-1034.4811	-1045.9769	-1054.2994	-1062.4710	-1075.4198	-1086.8915	-1095.9187	-1108.1016	-1117.2951	-1128.1693	-1137.7721	-1147.9417	-1157.1637	-1167.2282	-1152.9225	-1184.3700	-1193.9443	-1206.4336	-1216.5485	-1219.4875	-1225.8733	-1242.2426	-1251.3771	-1239.5487	-1260.3233	-1276.6161	-1292.6812	-1301.4371	-1311.3090	-1320.3493	-1329.4488	-1338.8327	-1347.0896	-1357.0906	-1363.8835	-1374.8846	-1383.6842	-1392.4226	-1402.0231	-1411.0110	-1420.1191	-1428.5248	-1436.2762	-1446.4742	-1456.4206	-1464.4936	-1472.8490	-1481.0993	-1490.0193	-1498.9480	-1481.8806	-1495.7923	-1500.3420	-1532.3957	-1542.2983	-1550.3867	-1556.0700	-1565.2307	-1571.4174	-1577.4530	-1591.1963	-1600.0287	-1596.0655	-1604.8760	-1625.7141	-1631.8876	-1641.6458	-1649.0404	-1658.7198	-1665.2960	-1674.4085	-1682.2693	-1690.1126	-1697.6582	-1706.0990	-1713.5790	-1720.0654	-1729.0970	-1736.2662	-1745.8603	-1753.6751	-1759.1592	-1765.4531	-1776.3886	-1783.9912
-505.6552	-526.5327	-542.6416	-557.0567	-571.5308	-585.2588	-599.0042	-609.5086	-616.7982	-622.7747	-642.5514	-663.3414	-663.9366	-673.4256	-700.4919	-712.7142	-725.6149	-736.6029	-749.6174	-762.1176	-772.4120	-784.8772	-796.2285	-808.8118	-820.4433	-832.0659	-842.8023	-855.0706	-849.5514	-852.9544	-868.7656	-880.0885	-911.7833	-921.8544	-929.9953	-942.4145	-954.0766	-943.3096	-962.6683	-970.6604	-990.2861	-1009.8374	-1021.3813	-1030.8243	-1042.7665	-1053.0192	-1061.5628	-1072.3013	-1084.0487	-1093.2948	-1104.6220	-1114.5618	-1125.0137	-1134.9053	-1144.6700	-1154.6579	-1164.6612	-1150.0425	-1179.9844	-1192.2089	-1203.3261	-1213.2046	-1202.4354	-1210.4887	-1238.3713	-1248.6919	-1233.3796	-1250.4733	-1277.3754	-1289.8997	-1297.6839	-1300.9272	-1317.3709	-1325.3433	-1336.4298	-1344.9843	-1353.7095	-1362.2268	-1372.0287	-1380.1893	-1390.0569	-1399.0513	-1407.2425	-1416.5323	-1426.0191	-1434.1622	-1444.5287	-1452.5471	-1461.5984	-1469.7349	-1478.4820	-1486.7192	-1495.9718	-1491.5949	-1503.7516	-1502.2525	-1530.3321	-1540.1777	-1546.7474	-1554.5710	-1563.5828	-1563.9111	-1558.5035	-1573.2381	-1590.2399	-1582.4010	-1589.5484	-1622.1032	-1616.8598	-1631.6907	-1634.7063	-1655.6844	-1662.9784	-1671.5767	-1679.5666	-1687.4580	-1695.0715	-1703.2912	-1711.3971	-1717.6669	-1719.5446	-1734.3207	-1740.7700	-1750.5369	-1757.5639	-1763.3326	-1772.9419	-1780.5488
-503.4799	-520.6327	-539.5909	-554.3627	-568.7187	-582.2759	-595.9667	-607.5718	-618.4789	-627.2457	-643.3130	-660.2645	-667.0245	-679.1198	-697.4237	-709.8977	-721.2621	-733.6179	-746.3873	-758.9554	-769.6764	-781.6296	-793.5017	-806.0129	-817.7428	-828.9431	-840.6489	-852.0287	-855.1318	-860.7407	-876.0531	-887.7129	-909.1594	-919.8148	-929.1528	-940.7185	-951.8772	-952.5622	-948.1285	-956.4707	-981.6922	-1005.9442	-1017.8820	-1027.7518	-1038.8842	-1050.2837	-1059.7945	-1070.0823	-1080.9105	-1090.5089	-1101.7049	-1112.2202	-1121.9367	-1131.5811	-1141.6259	-1151.8086	-1161.6127	-1159.6628	-1178.7567	-1189.5018	-1200.6496	-1210.2874	-1197.8310	-1201.4593	-1222.6695	-1245.8513	-1242.0894	-1253.3598	-1276.0799	-1286.9366	-1294.0293	-1283.5927	-1314.4516	-1321.9906	-1331.7225	-1342.1066	-1350.5407	-1360.0165	-1369.5405	-1377.7252	-1387.4768	-1395.9065	-1403.9796	-1412.6763	-1422.6555	-1431.7265	-1441.9092	-1449.0325	-1458.2216	-1466.8593	-1475.2431	-1483.3534	-1493.3150	-1495.6370	-1505.8919	-1510.3715	-1527.5331	-1536.8908	-1544.0053	-1552.3607	-1562.3376	-1556.7900	-1555.6739	-1563.8061	-1585.5370	-1585.8259	-1593.2030	-1619.0613	-1618.4158	-1620.2278	-1620.4291	-1651.7934	-1659.8534	-1667.8630	-1676.4875	-1684.7947	-1692.0800	-1699.5950	-1708.7404	-1714.7804	-1703.1949	-1724.2562	-1723.0460	-1733.9378	-1750.1167	-1760.8968	-1770.0072	-1778.4107
-500.8801	-506.8282	-536.4593	-551.2223	-565.0750	-579.6498	-593.1436	-605.0770	-617.6363	-628.6791	-642.2691	-657.1897	-668.0618	-679.8464	-694.7145	-707.3219	-718.3231	-731.0903	-743.2141	-755.9266	-767.1926	-778.6249	-790.6568	-802.5114	-814.7184	-825.8487	-837.8959	-848.7395	-857.0948	-865.6515	-878.1496	-890.1771	-906.1372	-916.7379	-927.3276	-938.9021	-949.5444	-955.8339	-956.0593	-962.6114	-981.8498	-1002.3574	-1014.4812	-1025.5699	-1035.8161	-1046.7297	-1055.8160	-1067.5590	-1078.4442	-1086.9549	-1098.3369	-1109.2877	-1119.1246	-1128.1234	-1139.4397	-1148.4581	-1158.2863	-1162.8382	-1177.0957	-1187.1778	-1197.8353	-1207.0726	-1198.6626	-1201.5578	-1223.3019	-1241.0324	-1247.6349	-1257.5353	-1273.6354	-1284.0720	-1292.0291	-1273.3422	-1301.9579	-1320.0430	-1319.9598	-1332.1121	-1347.5141	-1356.7799	-1366.9866	-1375.0444	-1383.6799	-1392.3044	-1401.4717	-1396.8213	-1413.3263	-1429.2580	-1438.0379	-1446.5924	-1454.4444	-1463.8546	-1472.2472	-1480.7142	-1490.2928	-1496.4970	-1504.7911	-1511.8881	-1524.5262	-1532.4986	-1541.6943	-1550.1722	-1559.2695	-1560.2302	-1563.7513	-1571.8091	-1587.6401	-1591.9710	-1599.5844	-1616.5884	-1620.4050	-1624.5696	-1626.5785	-1648.3751	-1650.8962	-1664.9808	-1673.1458	-1681.2276	-1688.7098	-1695.9644	-1704.9391	-1711.6488	-1706.9896	-1714.6316	-1719.4373	-1732.0623	-1740.1179	-1758.8594	-1767.5015	-1775.5877
-497.6959	-505.9156	-533.8923	-548.2264	-561.6939	-576.0849	-590.1499	-601.7857	-614.8308	-627.8716	-639.7350	-653.9640	-666.9917	-678.2423	-691.8958	-704.7943	-715.6686	-726.6500	-738.5375	-751.0071	-764.4111	-775.8127	-787.4092	-798.9662	-810.6961	-823.0322	-834.3813	-845.9711	-856.6134	-867.0456	-878.0270	-888.9450	-902.8130	-913.7857	-924.4542	-936.7881	-946.3165	-955.7092	-961.7579	-971.4942	-985.4300	-1000.2543	-1011.2577	-1022.8694	-1033.2228	-1043.3158	-1048.0187	-1063.5520	-1075.6977	-1084.2326	-1094.6975	-1105.7862	-1116.4985	-1125.0509	-1136.3431	-1145.7248	-1155.2444	-1162.9914	-1175.2224	-1184.6895	-1194.6271	-1203.9651	-1205.0330	-1209.3858	-1226.6611	-1238.4129	-1248.4709	-1259.2182	-1270.7358	-1280.6099	-1289.6940	-1281.6275	-1289.9085	-1317.8545	-1320.4019	-1324.4745	-1344.5313	-1353.0618	-1363.6493	-1371.6852	-1380.4585	-1389.7921	-1399.2504	-1391.1730	-1398.6442	-1424.1152	-1434.7049	-1444.0801	-1451.7855	-1460.4932	-1469.6648	-1478.0705	-1487.0387	-1495.3109	-1502.3401	-1510.5926	-1521.6856	-1529.6340	-1538.4161	-1547.8350	-1554.8708	-1561.2303	-1566.7167	-1575.5688	-1585.1147	-1592.1438	-1601.4818	-1614.4700	-1620.2781	-1625.3968	-1630.9991	-1645.7097	-1634.5225	-1654.9579	-1670.0186	-1677.2184	-1686.1603	-1693.6206	-1701.6433	-1708.8914	-1710.5086	-1718.5992	-1725.7684	-1735.1261	-1742.9650	-1756.5988	-1764.4662	-1771.4975
-495.6694	-509.6403	-530.5659	-545.4953	-559.5339	-572.4325	-587.1889	-598.9210	-611.8086	-625.4074	-637.5093	-650.6114	-664.0592	-675.7453	-688.7532	-701.7853	-713.1781	-724.1596	-721.5357	-732.8673	-760.6711	-773.2676	-784.3848	-788.4465	-795.8630	-818.1279	-831.0812	-843.0299	-853.8166	-865.5968	-876.2653	-886.6450	-899.8017	-910.7723	-921.3270	-934.0854	-943.0317	-953.5776	-962.6902	-973.0523	-985.3206	-997.9105	-1008.1239	-1019.1994	-1030.3297	-1040.3680	-1048.1084	-1060.4160	-1071.7236	-1081.9238	-1092.1809	-1102.4971	-1113.4413	-1122.5561	-1132.3996	-1143.4292	-1152.7299	-1161.7856	-1172.8218	-1181.3456	-1191.0885	-1201.4265	-1206.7356	-1214.4717	-1227.2301	-1236.4740	-1247.1491	-1258.6908	-1268.1950	-1277.0187	-1286.7747	-1287.2933	-1295.3751	-1314.1496	-1321.2685	-1326.0436	-1342.3188	-1350.2825	-1360.0056	-1368.8008	-1377.4494	-1387.5161	-1395.9612	-1395.9000	-1401.7977	-1416.9700	-1431.9716	-1440.4583	-1449.5577	-1455.1754	-1466.2181	-1475.2190	-1483.6007	-1491.9254	-1487.7171	-1496.1381	-1518.3614	-1527.8942	-1535.1313	-1544.6334	-1551.2183	-1559.2892	-1567.1149	-1575.5294	-1583.8563	-1590.5638	-1600.5977	-1611.7520	-1618.9672	-1624.1975	-1632.2225	-1642.8625	-1630.4870	-1638.6783	-1663.8188	-1674.2685	-1683.7049	-1691.2418	-1698.6518	-1705.8101	-1710.6968	-1719.4001	-1727.0355	-1736.0299	-1742.8796	-1753.2221	-1760.5139	-1768.1996
-493.4198	-510.1174	-527.0513	-542.6438	-556.8663	-569.9683	-583.8801	-596.9033	-609.4298	-622.4137	-635.1283	-647.4513	-661.4024	-669.9241	-685.2343	-698.7346	-710.6877	-721.5116	-712.2174	-719.8287	-744.9452	-769.9215	-781.5639	-773.6878	-780.0933	-798.0996	-828.2450	-839.7385	-850.8775	-862.3427	-873.6983	-884.6864	-897.2238	-907.7216	-918.5302	-931.1180	-940.5544	-951.4571	-961.8083	-971.7524	-983.2438	-995.5471	-1005.0951	-1015.5514	-1027.2659	-1037.5712	-1046.8566	-1058.1773	-1068.1762	-1078.7790	-1089.8787	-1099.3457	-1109.9377	-1119.9803	-1128.4451	-1139.2843	-1150.2942	-1159.4090	-1169.5545	-1178.5510	-1188.2413	-1198.6188	-1205.7443	-1215.1916	-1225.5779	-1233.9048	-1244.7703	-1255.6248	-1265.5405	-1273.9287	-1283.6015	-1289.1097	-1297.4279	-1310.7247	-1319.7891	-1326.0961	-1339.5198	-1347.7767	-1355.0510	-1366.2294	-1374.4798	-1383.8265	-1392.7902	-1396.7272	-1405.1745	-1417.8126	-1429.0632	-1437.1691	-1445.5113	-1437.2763	-1450.8839	-1472.5776	-1480.4122	-1482.3664	-1474.1402	-1484.6993	-1511.9297	-1525.0361	-1532.5183	-1541.0991	-1549.2728	-1556.0044	-1565.0469	-1573.9319	-1582.2566	-1583.5084	-1583.6506	-1603.7643	-1616.2142	-1622.2345	-1630.2419	-1640.0570	-1637.2755	-1643.0179	-1662.4882	-1671.5942	-1680.2034	-1688.1561	-1695.8988	-1702.9148	-1709.8959	-1717.5159	-1725.6218	-1735.2486	-1741.0545	-1749.4886	-1757.1262	-1765.5560
-491.0519	-507.9421	-524.4712	-539.0920	-553.3473	-567.1212	-580.8579	-594.4479	-606.7446	-619.5293	-632.3709	-644.6370	-658.5356	-653.9968	-682.6716	-695.4651	-707.5364	-718.7914	-719.9863	-727.0483	-741.0957	-766.7637	-778.6161	-776.4343	-780.2509	-792.6154	-824.5662	-836.7798	-848.3871	-859.5918	-871.0044	-882.3163	-894.2475	-905.1305	-904.0013	-925.3799	-937.6810	-948.9010	-960.2457	-970.4087	-974.8053	-988.9796	-1002.3399	-1013.0215	-1024.4407	-1034.6365	-1043.8125	-1055.6781	-1065.0708	-1075.4548	-1086.6595	-1096.3410	-1106.5325	-1116.9056	-1124.9217	-1135.1329	-1146.7774	-1156.0301	-1165.9414	-1176.0737	-1185.8319	-1195.8307	-1203.9913	-1213.7342	-1222.9802	-1231.4012	-1242.1901	-1251.9351	-1262.8356	-1271.5871	-1280.2401	-1288.8099	-1297.4629	-1308.2649	-1317.0689	-1323.6823	-1335.3728	-1345.1791	-1341.2837	-1356.2218	-1368.9015	-1380.0208	-1390.2779	-1393.5956	-1402.8854	-1416.2653	-1425.8878	-1434.4642	-1442.3337	-1426.1701	-1436.0902	-1469.7677	-1477.9764	-1468.0651	-1465.1655	-1475.0637	-1509.6734	-1521.2217	-1529.7346	-1537.9346	-1546.5242	-1552.9734	-1561.9415	-1571.6537	-1579.3132	-1573.0959	-1574.8225	-1585.0381	-1613.3146	-1620.2103	-1626.8105	-1637.3105	-1639.7462	-1646.5172	-1660.3852	-1669.1279	-1676.3212	-1684.7794	-1692.9356	-1700.0283	-1708.6681	-1714.8789	-1723.5472	-1732.3577	-1739.1856	-1746.5715	-1754.8831	-1762.4178
-488.9641	-505.1190	-521.9764	-535.7787	-550.0822	-563.8276	-577.9013	-590.3512	-593.3428	-615.8812	-629.4866	-642.1597	-655.6360	-656.6120	-680.3388	-691.7185	-703.9080	-716.5286	-722.5424	-733.3247	-746.0613	-764.0675	-775.4889	-777.2046	-787.3194	-800.4827	-820.6555	-833.9939	-845.8398	-857.2108	-867.8553	-879.2044	-891.4420	-902.5066	-897.8519	-908.3190	-924.9116	-944.3797	-957.4205	-968.5836	-963.0710	-970.6429	-996.1708	-1010.3145	-1021.3616	-1029.1939	-1041.1624	-1052.2795	-1053.6582	-1069.2726	-1081.8975	-1094.0607	-1103.6657	-1113.6098	-1120.3326	-1132.8438	-1143.5714	-1153.1020	-1162.9104	-1173.3317	-1180.6541	-1192.6926	-1202.1553	-1211.7887	-1220.4285	-1228.1821	-1239.3299	-1249.5279	-1260.1089	-1269.0376	-1277.1916	-1286.8184	-1295.6203	-1305.4681	-1314.6463	-1321.9600	-1331.7378	-1342.0124	-1340.3799	-1339.5811	-1350.5144	-1374.4141	-1386.0412	-1391.8186	-1402.1654	-1413.1250	-1422.7846	-1431.7440	-1439.1343	-1434.5780	-1435.6263	-1466.4369	-1475.1052	-1471.7854	-1473.5362	-1476.4402	-1508.5005	-1517.7684	-1526.1369	-1534.7899	-1543.4757	-1551.0782	-1559.4708	-1568.7475	-1576.2406	-1576.4026	-1582.8934	-1587.4059	-1609.9750	-1617.4572	-1624.4689	-1634.2708	-1640.2189	-1646.6354	-1657.7087	-1666.2523	-1673.0889	-1682.0023	-1689.6421	-1696.5990	-1705.4337	-1712.4891	-1720.9911	-1729.4603	-1736.7127	-1741.6935	-1752.4189	-1758.8769
-485.5590	-502.0837	-518.9717	-533.5815	-547.5152	-561.3591	-574.8003	-586.9613	-582.5232	-598.9998	-626.6876	-639.1113	-650.5742	-657.2313	-676.7629	-688.8364	-701.0478	-713.5195	-722.8006	-734.9003	-746.7900	-761.1788	-773.1823	-779.6972	-789.6829	-802.5202	-818.6816	-831.1337	-842.6119	-854.0726	-864.9491	-875.8846	-888.1265	-899.2940	-902.4563	-906.5771	-912.3042	-930.6299	-953.8424	-965.4367	-967.4916	-965.4892	-982.3247	-1006.7583	-1017.7091	-1014.6169	-1037.5909	-1048.7584	-1052.6034	-1054.4351	-1067.4015	-1091.5637	-1100.2145	-1110.2419	-1116.5160	-1129.7932	-1141.0569	-1150.8763	-1160.5075	-1169.8630	-1176.6230	-1188.7140	-1198.9383	-1209.2829	-1217.3144	-1224.7353	-1236.4980	-1244.8578	-1254.8391	-1263.4812	-1274.1103	-1283.8094	-1292.7534	-1301.8529	-1311.8342	-1320.3143	-1329.3525	-1338.5460	-1342.8791	-1344.8771	-1351.8472	-1362.1896	-1376.9789	-1391.2715	-1400.2702	-1410.1969	-1420.2089	-1428.2600	-1436.7314	-1439.6114	-1442.3337	-1462.5985	-1471.4966	-1474.8580	-1481.1124	-1486.8067	-1505.8568	-1515.3195	-1523.2788	-1531.2425	-1539.9830	-1549.0452	-1557.2036	-1565.5568	-1573.5357	-1577.4968	-1585.9944	-1592.8310	-1606.5896	-1614.3015	-1622.6131	-1631.0932	-1638.7133	-1645.6068	-1655.0192	-1663.2454	-1670.9574	-1679.0917	-1686.6155	-1693.5637	-1701.5667	-1709.7930	-1717.5378	-1726.5431	-1733.9728	-1738.3934	-1748.1690	-1755.5330
-482.1604	-498.5778	-515.5118	-531.0649	-544.3770	-559.2910	-571.5286	-584.4687	-587.7557	-589.2351	-623.3787	-636.0037	-647.5782	-642.8775	-661.7351	-686.0484	-698.4567	-710.3989	-721.9055	-733.7186	-744.9255	-757.9181	-770.3417	-779.3427	-790.4226	-796.2810	-815.0379	-827.8335	-839.8282	-851.0373	-861.6796	-873.6196	-884.6492	-895.7904	-904.4259	-911.7395	-918.3879	-931.1070	-950.8487	-961.8258	-969.7588	-972.9933	-985.2593	-1004.1278	-1014.7241	-1003.8193	-1024.8849	-1046.1870	-1052.8638	-1057.5383	-1060.4073	-1088.4934	-1097.3171	-1106.8870	-1115.6232	-1113.2531	-1136.3190	-1145.9896	-1157.7129	-1165.7400	-1175.7849	-1185.5452	-1195.3690	-1205.2344	-1214.1281	-1221.9648	-1233.6006	-1228.2280	-1235.7737	-1251.7185	-1269.4403	-1280.4524	-1289.9807	-1296.8961	-1304.6715	-1317.7714	-1322.1876	-1335.5435	-1343.2708	-1348.7725	-1355.4318	-1363.2860	-1376.4428	-1389.1859	-1398.5961	-1407.7655	-1417.4602	-1425.4326	-1433.9149	-1439.9746	-1446.4261	-1459.4712	-1468.7851	-1475.0965	-1482.9573	-1490.3038	-1503.0491	-1512.1792	-1520.8103	-1527.7257	-1536.9017	-1542.0620	-1553.5205	-1562.9898	-1570.3297	-1577.5099	-1585.3838	-1593.8114	-1603.1603	-1610.9861	-1619.8338	-1628.3315	-1635.5970	-1643.3396	-1652.0736	-1659.8468	-1668.4495	-1675.6669	-1683.9872	-1690.9704	-1698.7503	-1706.4053	-1714.4412	-1723.2145	-1731.3948	-1736.0999	-1744.1489	-1753.0404
-479.9326	-495.3981	-512.4130	-527.6969	-540.3175	-550.8831	-569.1717	-581.9258	-590.7911	-595.7610	-620.1399	-632.9990	-645.9566	-642.4683	-646.3702	-673.3162	-694.9530	-707.9631	-719.3714	-730.9349	-738.4981	-754.6420	-766.6083	-777.5635	-789.4116	-783.3978	-796.8193	-822.1065	-837.2218	-847.9845	-858.3838	-871.1226	-881.8808	-892.5275	-903.5286	-912.0569	-921.1432	-933.2145	-948.4808	-959.0180	-968.5705	-975.1138	-986.5439	-1001.2895	-1012.5620	-1009.0386	-1020.9283	-1043.9964	-1051.6886	-1059.3962	-1065.4319	-1085.2611	-1094.7544	-1103.8167	-1113.9906	-1109.1214	-1119.7024	-1140.7133	-1154.2421	-1162.5012	-1173.3667	-1183.3896	-1192.3774	-1192.6532	-1202.4354	-1219.4656	-1230.8104	-1229.9810	-1226.9128	-1241.9275	-1255.3884	-1272.2261	-1287.1467	-1286.8141	-1286.6959	-1309.6130	-1303.0412	-1324.6102	-1340.2333	-1349.2824	-1356.4297	-1364.6757	-1375.6528	-1386.2403	-1396.3223	-1405.0629	-1413.8340	-1420.0776	-1418.0336	-1436.9721	-1446.7806	-1457.1449	-1466.0518	-1473.9038	-1481.5239	-1490.1900	-1500.5346	-1508.2991	-1517.8494	-1525.6554	-1533.7438	-1521.8607	-1535.3589	-1560.1120	-1567.9597	-1575.9343	-1583.0969	-1592.0979	-1600.5955	-1607.8960	-1616.5293	-1625.7644	-1632.4632	-1641.0505	-1648.9967	-1656.1812	-1664.8714	-1672.1216	-1680.4529	-1687.9395	-1696.2423	-1703.5626	-1711.9727	-1719.5708	-1728.4208	-1734.2551	-1741.6410	-1750.4187
-477.3349	-492.8595	-509.5943	-524.0554	-533.1526	-528.3403	-562.1119	-578.4593	-589.9310	-600.2122	-617.2796	-629.5085	-643.9301	-648.7709	-643.0219	-666.7662	-691.0861	-704.9431	-716.2857	-728.2935	-722.8181	-750.5935	-758.5221	-775.3050	-786.8402	-787.3785	-788.4924	-816.9506	-833.6328	-845.3781	-855.4185	-867.4635	-879.1168	-889.7000	-900.4780	-910.9233	-920.0052	-931.4528	-945.6906	-956.2322	-965.8087	-975.1817	-985.3863	-997.9237	-1009.9031	-1013.5074	-1024.5042	-1040.7903	-1050.3165	-1059.2080	-1066.6465	-1081.8734	-1091.9073	-1100.9936	-1111.1960	-1114.5990	-1121.9389	-1139.4813	-1151.4059	-1160.1902	-1170.1059	-1180.6147	-1189.3399	-1192.8983	-1197.4370	-1217.1131	-1227.2454	-1232.7668	-1235.3119	-1245.3524	-1254.0141	-1260.5203	-1283.6299	-1287.2824	-1285.7746	-1290.3462	-1303.7349	-1317.1324	-1322.8179	-1347.4725	-1354.0750	-1363.6121	-1374.6439	-1383.6230	-1392.9150	-1400.3993	-1410.3829	-1402.5221	-1402.3470	-1420.6115	-1445.0036	-1454.4313	-1462.6532	-1471.6103	-1479.2982	-1488.0760	-1497.5781	-1505.3841	-1514.4070	-1523.3620	-1531.2818	-1514.2319	-1520.3069	-1556.6959	-1565.4189	-1572.4459	-1580.8976	-1589.4652	-1597.9409	-1604.6747	-1613.5728	-1622.0398	-1629.2331	-1634.1242	-1645.8760	-1653.1503	-1661.3984	-1667.3399	-1677.2841	-1684.7269	-1693.2026	-1701.1181	-1709.8390	-1716.6668	-1724.3832	-1731.8785	-1739.3235	-1746.9873
-465.6510	-490.7127	-506.5262	-521.0857	-517.3369	-518.7506	-541.9260	-562.6109	-587.9308	-599.7351	-614.7520	-626.4710	-640.9845	-650.3203	-651.9266	-670.5216	-688.2412	-700.7348	-714.4168	-725.6609	-725.9716	-747.7398	-741.2095	-763.2228	-781.7455	-790.4861	-796.6596	-815.7163	-830.0570	-842.4697	-852.8668	-863.6820	-874.2673	-885.7631	-897.5696	-909.4899	-918.1122	-929.4569	-942.3183	-953.3785	-963.0644	-974.1181	-983.2635	-994.5842	-1006.8065	-1014.3127	-1024.6530	-1036.7089	-1047.7276	-1057.1750	-1066.8937	-1078.1860	-1089.0055	-1097.9473	-1108.3992	-1116.0018	-1124.3243	-1137.4198	-1148.7842	-1157.9077	-1167.3485	-1177.2774	-1185.2498	-1189.0839	-1195.9073	-1214.8524	-1223.8490	-1233.1673	-1239.3430	-1248.2126	-1256.5833	-1264.0480	-1277.9182	-1287.1336	-1292.1844	-1281.1767	-1310.4971	-1321.0518	-1323.1396	-1344.6517	-1352.5409	-1361.8373	-1372.0025	-1381.1938	-1389.7702	-1398.0337	-1407.4898	-1403.4062	-1396.1188	-1406.7917	-1436.8167	-1450.8751	-1459.7251	-1468.6319	-1477.0420	-1484.6730	-1494.4705	-1503.0688	-1510.9799	-1519.7927	-1520.8540	-1520.9131	-1517.9719	-1553.8882	-1561.6855	-1569.5025	-1578.4859	-1586.6400	-1594.5008	-1601.2258	-1610.2661	-1618.7440	-1626.0227	-1614.6845	-1629.0208	-1648.4561	-1658.4966	-1651.1260	-1670.9180	-1682.0570	-1689.6858	-1697.8005	-1706.8102	-1714.3646	-1720.1814	-1728.6943	-1736.3866	-1743.8994
-452.7328	-488.2266	-503.9613	-517.9541	-514.2491	-517.3129	-532.7521	-548.1323	-585.6964	-597.5161	-612.2900	-623.9740	-637.1461	-648.6659	-656.0321	-671.5632	-685.8667	-697.6316	-711.8169	-722.8772	-728.8866	-745.6739	-735.2964	-748.4838	-764.7985	-786.1114	-798.0317	-812.9436	-827.2886	-838.8807	-850.2276	-861.1368	-863.3646	-871.0000	-894.3788	-906.8003	-916.5606	-927.5311	-939.7775	-950.1462	-960.5521	-971.3979	-981.6878	-991.4153	-1003.7514	-1012.3497	-1022.3748	-1034.1441	-1043.9001	-1054.3891	-1065.5238	-1074.9690	-1085.5150	-1095.4219	-1105.7272	-1114.6515	-1124.2149	-1134.9753	-1145.2652	-1154.9643	-1165.0594	-1173.9575	-1183.1029	-1172.9771	-1179.6649	-1207.4075	-1221.1879	-1230.9023	-1239.6691	-1249.1208	-1256.2244	-1265.5974	-1262.3016	-1278.0757	-1293.5369	-1290.4972	-1311.0770	-1321.9950	-1327.1115	-1341.7936	-1351.3614	-1359.3622	-1369.0416	-1378.2767	-1386.6080	-1395.7905	-1404.4589	-1407.0871	-1393.4227	-1412.9455	-1431.3151	-1447.3036	-1457.1274	-1465.1786	-1474.6719	-1481.0665	-1491.0041	-1499.7621	-1507.5113	-1515.9432	-1501.2327	-1509.4043	-1528.1918	-1551.3365	-1558.0527	-1567.1084	-1575.9912	-1583.2720	-1591.1131	-1598.6281	-1607.0404	-1615.7678	-1623.2084	-1609.5395	-1616.3893	-1636.2535	-1655.6560	-1637.8160	-1654.8156	-1672.7803	-1686.5652	-1694.1458	-1702.8842	-1711.5612	-1717.7369	-1725.2716	-1732.7954	-1741.6738
-455.5492	-485.1082	-501.3090	-514.6080	-521.0682	-528.5438	-542.1339	-555.4657	-583.0112	-595.1701	-608.8520	-621.1247	-634.1326	-646.1032	-656.6798	-670.3465	-683.1181	-695.8831	-707.8734	-720.2380	-729.0792	-742.8749	-742.7524	-753.6988	-758.4542	-772.9481	-784.1703	-797.4102	-824.9908	-835.9613	-847.4833	-858.8762	-863.7695	-857.5588	-878.0117	-894.8603	-913.7157	-925.0210	-937.3352	-947.1897	-957.6109	-968.4895	-979.0223	-988.1305	-1000.3791	-1001.6046	-1015.5032	-1031.9754	-1041.1011	-1051.8944	-1062.1624	-1072.9141	-1082.5453	-1092.4216	-1103.1558	-1111.6687	-1121.8098	-1132.2967	-1141.4968	-1147.4974	-1161.6149	-1170.9485	-1180.5819	-1165.4993	-1173.7847	-1190.6683	-1217.7587	-1227.4643	-1237.6973	-1248.5496	-1255.1652	-1264.1509	-1249.0836	-1263.8467	-1291.7708	-1295.8128	-1309.5998	-1320.7367	-1327.6980	-1338.6817	-1348.6368	-1356.5982	-1366.2842	-1375.6440	-1383.7236	-1392.7837	-1398.5042	-1408.5993	-1403.9993	-1420.8960	-1432.2430	-1444.6163	-1454.5538	-1462.0185	-1471.5731	-1479.4120	-1485.7738	-1488.6647	-1504.2878	-1513.1311	-1493.1006	-1499.9591	-1532.1134	-1548.1501	-1555.4310	-1563.6244	-1573.3694	-1580.4030	-1578.2102	-1590.4303	-1604.1363	-1612.8528	-1620.4028	-1617.8074	-1623.0749	-1637.0632	-1652.2377	-1635.5401	-1652.0123	-1657.3345	-1684.1864	-1691.2265	-1699.4943	-1708.4077	-1716.1569	-1722.4902	-1720.3149	-1736.6273
-459.8932	-482.1669	-498.1489	-512.2445	-522.5891	-533.5859	-547.5349	-560.2517	-580.2911	-592.9051	-605.1449	-617.4241	-631.4671	-643.6063	-655.4106	-667.6372	-680.1309	-693.4189	-704.0568	-717.1829	-727.5648	-740.0694	-746.4836	-757.6358	-765.0786	-777.8217	-785.6628	-789.7880	-812.8385	-833.0179	-844.2007	-855.9372	-864.2838	-858.3948	-873.9588	-889.6212	-905.5004	-922.1717	-934.0198	-944.6073	-954.1641	-966.0341	-975.6237	-985.3490	-996.8645	-984.4146	-997.0943	-1023.5653	-1039.2519	-1048.9859	-1058.9717	-1070.2967	-1079.8317	-1088.7100	-1100.3765	-1109.1280	-1119.0677	-1129.5874	-1139.0545	-1131.6774	-1143.3110	-1168.5150	-1177.7194	-1174.8220	-1183.4246	-1195.2005	-1215.1347	-1224.9585	-1234.7232	-1245.6434	-1253.3620	-1262.1025	-1250.3770	-1258.3559	-1284.4922	-1296.5766	-1307.5515	-1318.0231	-1326.0698	-1335.9199	-1344.2796	-1354.3026	-1362.9775	-1372.3745	-1380.5920	-1389.8512	-1395.3507	-1395.8037	-1406.2752	-1422.7037	-1431.7112	-1442.2112	-1451.5338	-1458.9088	-1467.8966	-1476.4467	-1468.7260	-1470.1310	-1501.3750	-1510.8946	-1489.2796	-1494.6522	-1522.5873	-1544.9923	-1553.0609	-1560.1886	-1570.1919	-1578.3481	-1563.6616	-1570.8046	-1588.1456	-1609.9553	-1618.0547	-1621.2673	-1628.0732	-1638.3172	-1649.0645	-1644.5804	-1657.8685	-1661.2168	-1681.3589	-1689.0381	-1697.2512	-1705.2827	-1713.1719	-1720.0085	-1706.0596	-1718.7064
-458.0025	-478.9981	-495.0501	-510.0648	-521.8648	-534.5663	-548.3949	-560.1730	-577.3630	-589.7888	-601.7944	-613.5396	-628.0313	-640.6431	-652.9967	-665.1074	-676.8548	-689.6986	-701.8728	-713.9178	-725.3282	-737.1982	-746.6149	-758.1982	-767.7047	-780.3493	-790.3241	-796.0818	-808.6608	-827.3805	-840.7736	-852.8690	-862.4740	-865.8200	-879.7296	-892.8141	-902.4650	-919.3793	-929.9844	-941.4407	-951.2448	-962.5895	-972.7350	-982.9877	-993.9626	-984.8523	-986.8153	-1007.4367	-1035.9693	-1045.8718	-1056.1661	-1066.5874	-1076.8663	-1085.4471	-1097.2405	-1107.7646	-1116.2753	-1126.9570	-1136.6385	-1118.3390	-1127.7273	-1165.1820	-1174.4521	-1179.1682	-1187.9481	-1197.9448	-1212.5196	-1223.1159	-1232.0140	-1242.1267	-1250.6987	-1258.9599	-1258.9753	-1267.2124	-1284.4265	-1296.0536	-1305.3521	-1314.8302	-1323.8639	-1333.6330	-1340.9533	-1351.5955	-1359.3928	-1369.3064	-1374.7840	-1386.3650	-1394.1317	-1390.3808	-1393.3176	-1419.1541	-1429.8926	-1439.1934	-1448.1265	-1456.2411	-1465.1458	-1473.5668	-1459.1583	-1459.6288	-1492.4681	-1507.5310	-1488.8069	-1500.9789	-1516.1380	-1541.8256	-1549.7324	-1557.7004	-1566.8020	-1575.6060	-1566.8545	-1570.5070	-1579.6502	-1606.4801	-1615.2798	-1621.0878	-1628.5262	-1637.3499	-1646.5588	-1648.2810	-1659.1793	-1664.3177	-1677.4460	-1686.3288	-1694.6076	-1702.6763	-1710.3751	-1716.6996	-1711.8370	-1715.6142
-458.5517	-475.8599	-492.1921	-506.3992	-520.1644	-534.0302	-547.2241	-558.6192	-574.3320	-586.7644	-599.2690	-611.1958	-624.5933	-636.8484	-650.6092	-662.5973	-673.6926	-686.5911	-699.2708	-710.9503	-722.8159	-734.0315	-745.3960	-756.8698	-768.0526	-780.2071	-790.6086	-798.8633	-811.0265	-824.8551	-837.6880	-850.0416	-859.6312	-867.4810	-880.6881	-892.8907	-902.3337	-916.6438	-927.3933	-937.6569	-949.0323	-959.0728	-969.8441	-980.4930	-990.9667	-992.1594	-995.7287	-1011.7107	-1031.9098	-1042.8234	-1053.2687	-1063.3463	-1073.9645	-1082.8692	-1093.8397	-1105.1297	-1113.1940	-1123.5277	-1133.1327	-1112.7235	-1120.7353	-1160.7702	-1171.6663	-1179.3870	-1188.6309	-1198.0476	-1209.3858	-1220.0346	-1229.7096	-1238.7062	-1247.8275	-1256.4936	-1261.3759	-1270.9634	-1283.0478	-1294.1037	-1302.9252	-1311.5322	-1321.5464	-1330.8034	-1338.9618	-1348.4770	-1356.2087	-1365.6998	-1356.7733	-1370.3174	-1382.7345	-1395.0246	-1393.4139	-1416.8125	-1427.3365	-1436.2784	-1444.9839	-1454.3197	-1462.4190	-1470.8269	-1462.6357	-1455.6393	-1476.6940	-1504.7736	-1499.7227	-1511.0149	-1521.9701	-1538.7618	-1546.3447	-1555.1837	-1564.0927	-1572.1001	-1571.3977	-1577.5624	-1586.9682	-1603.4798	-1611.9599	-1619.4377	-1626.7667	-1634.6231	-1644.0530	-1648.9091	-1658.1683	-1664.7489	-1674.2225	-1682.9937	-1691.6576	-1699.8707	-1707.4842	-1713.3317	-1715.5245	-1721.3478
-458.5364	-473.1988	-488.9444	-502.8277	-518.5252	-531.9577	-545.6353	-557.1748	-570.7561	-584.3900	-596.9733	-608.8499	-621.7440	-633.4039	-646.9830	-660.0216	-670.6485	-684.0416	-696.1742	-707.6655	-719.7784	-730.8146	-743.3586	-754.8981	-766.8753	-777.3424	-788.8601	-798.7933	-811.0024	-823.0978	-834.5936	-847.0434	-858.0118	-867.5117	-879.1278	-890.9934	-900.6202	-913.2758	-924.7300	-934.7113	-946.3690	-956.4729	-966.5309	-977.5364	-987.8548	-994.0042	-1001.4536	-1015.4091	-1029.1502	-1039.6611	-1050.2312	-1060.4707	-1070.7388	-1079.9870	-1090.4892	-1095.0455	-1110.5045	-1120.4377	-1130.1739	-1111.6906	-1126.7600	-1158.1594	-1169.0139	-1177.9733	-1187.6767	-1196.7039	-1206.1404	-1216.4981	-1227.1776	-1235.4607	-1245.1379	-1254.4737	-1260.8485	-1270.6329	-1280.9404	-1287.3152	-1299.9971	-1309.5977	-1318.4892	-1327.4004	-1336.3248	-1345.3673	-1353.1909	-1362.5507	-1352.2783	-1365.8727	-1368.9321	-1396.6834	-1399.5108	-1415.7861	-1424.5616	-1434.1141	-1441.8873	-1451.2887	-1459.6485	-1467.9491	-1468.7960	-1463.5285	-1478.4404	-1502.7712	-1504.1937	-1513.6345	-1523.4977	-1535.9388	-1543.0993	-1550.7937	-1560.2696	-1568.8307	-1573.3804	-1580.1842	-1589.1654	-1600.8121	-1608.3075	-1617.2756	-1624.7446	-1632.0496	-1641.3853	-1648.0119	-1655.5488	-1663.3811	-1671.9728	-1679.5294	-1688.2152	-1696.2642	-1704.0769	-1710.9704	-1716.6843	-1722.5164
-456.9827	-470.3473	-485.9748	-500.2717	-516.0086	-528.6817	-542.7225	-555.1440	-567.3050	-581.4837	-594.2313	-606.0312	-619.2208	-621.0525	-629.9462	-655.7126	-667.3462	-680.9537	-693.4430	-704.7418	-716.2747	-727.6829	-740.2685	-752.2216	-763.9472	-773.9438	-786.2099	-797.4562	-809.0285	-821.2070	-831.5976	-843.2400	-855.8409	-866.0651	-876.6986	-889.1201	-898.0904	-909.9035	-921.6706	-932.3653	-943.0842	-954.1773	-963.2132	-974.2100	-985.5723	-993.6234	-1002.2874	-1015.2559	-1027.1193	-1036.6258	-1047.0864	-1057.0787	-1067.1367	-1075.3826	-1078.5186	-1076.7329	-1107.0796	-1117.4855	-1127.7098	-1122.8143	-1135.5027	-1156.6056	-1165.5212	-1175.7652	-1185.6962	-1194.8394	-1202.8709	-1213.4190	-1224.3939	-1232.5983	-1242.2076	-1251.5740	-1259.2138	-1268.5802	-1278.3865	-1284.1333	-1297.0274	-1303.0565	-1314.7689	-1323.8727	-1332.9918	-1342.0803	-1349.6610	-1359.8327	-1359.2396	-1370.9017	-1375.4186	-1395.1668	-1401.6227	-1413.7312	-1421.1630	-1431.3479	-1438.7491	-1447.4962	-1456.8582	-1464.8766	-1470.2404	-1472.0677	-1482.4561	-1499.4185	-1504.9049	-1513.2012	-1523.3423	-1533.1354	-1540.3419	-1547.7540	-1542.9198	-1562.7097	-1572.2862	-1579.4401	-1587.9005	-1598.1554	-1605.1452	-1614.3234	-1622.3352	-1629.5154	-1637.6322	-1646.0970	-1652.2858	-1660.7659	-1668.9331	-1676.4284	-1684.9545	-1693.2924	-1700.9168	-1708.3114	-1714.9380	-1721.6520
-454.8052	-467.1435	-483.8586	-497.7988	-512.2182	-525.6792	-539.0460	-551.8986	-564.6855	-577.4264	-590.7933	-602.3743	-615.6142	-611.2024	-615.8090	-637.1592	-664.3043	-677.0977	-690.2786	-702.0369	-713.0665	-725.5033	-736.7255	-748.7377	-760.8746	-771.4206	-783.7611	-795.6442	-806.3171	-817.8019	-828.8709	-839.8217	-851.8755	-863.2027	-874.0638	-886.3124	-895.9567	-906.9031	-918.3726	-929.5620	-939.8344	-951.1616	-960.5631	-971.4220	-982.4691	-992.5467	-1001.5149	-1012.8005	-1024.0140	-1033.3278	-1043.0882	-1055.0282	-1064.1123	-1072.5989	-1067.4868	-1067.3139	-1092.6164	-1114.3495	-1124.7729	-1128.1124	-1138.6825	-1153.4061	-1162.9367	-1172.7846	-1183.0220	-1192.0207	-1199.9362	-1210.1692	-1212.5437	-1227.5212	-1239.0344	-1248.2433	-1257.0451	-1266.6084	-1275.5043	-1282.8705	-1293.5785	-1282.9143	-1308.7092	-1320.7389	-1330.4226	-1339.3798	-1347.4463	-1346.5797	-1354.1800	-1372.0069	-1378.2373	-1391.8317	-1401.3032	-1410.6324	-1417.8191	-1427.9362	-1436.1931	-1444.0451	-1453.5888	-1461.6224	-1469.0871	-1474.7704	-1483.2637	-1495.6676	-1504.4409	-1511.8137	-1521.4712	-1530.6910	-1537.5188	-1545.3709	-1528.0671	-1544.3817	-1560.8648	-1567.5548	-1585.4363	-1594.8159	-1602.7686	-1611.3165	-1619.2583	-1626.3072	-1633.8397	-1642.7969	-1650.1718	-1657.6737	-1665.4798	-1673.3274	-1682.0789	-1690.5371	-1698.2688	-1704.6196	-1712.0733	-1719.6190
-452.5292	-464.3357	-481.3266	-494.7744	-509.2026	-523.4317	-536.0698	-548.9639	-562.6021	-574.0738	-587.2677	-587.7557	-608.4975	-616.3167	-616.5618	-632.0974	-661.7460	-673.8042	-686.5561	-699.0103	-710.2106	-722.8006	-734.1804	-745.7242	-758.1457	-769.4182	-780.8373	-792.7861	-803.6253	-814.1231	-825.8640	-837.0183	-847.9013	-859.9507	-871.3414	-882.5964	-893.0308	-903.6709	-915.1557	-926.1546	-936.9085	-948.2817	-958.4666	-968.8396	-978.7291	-990.6384	-999.1207	-1004.6574	-1018.3306	-1022.1976	-1040.2651	-1052.2160	-1061.1076	-1070.4193	-1071.4413	-1068.5044	-1084.8125	-1111.8875	-1121.4947	-1128.6158	-1139.9299	-1149.5458	-1160.6082	-1170.0468	-1180.5097	-1188.7622	-1196.8418	-1206.4402	-1194.9773	-1210.7076	-1235.2091	-1244.5974	-1254.1323	-1264.2975	-1272.9483	-1281.7282	-1290.0004	-1281.9514	-1292.5236	-1316.5327	-1327.9059	-1336.4604	-1344.2753	-1336.8215	-1341.4041	-1370.6829	-1378.4189	-1389.6170	-1398.5961	-1407.7283	-1414.9392	-1424.3384	-1433.7333	-1441.1936	-1450.2974	-1458.8475	-1467.4546	-1474.3393	-1481.1650	-1492.7614	-1502.9244	-1509.6625	-1518.4008	-1527.9226	-1534.4616	-1542.8323	-1529.0365	-1545.4015	-1560.8867	-1556.7637	-1583.2742	-1591.1503	-1599.9193	-1608.1959	-1616.0873	-1623.2084	-1631.2530	-1635.3147	-1648.4408	-1654.7850	-1662.9959	-1670.4847	-1678.4987	-1686.8256	-1695.3954	-1701.1838	-1709.7514	-1717.5969
-449.6624	-461.9810	-477.9214	-491.5793	-506.4868	-520.6239	-534.1330	-546.2328	-559.4836	-571.5024	-584.5541	-583.1666	-590.4256	-617.0192	-625.3636	-638.7436	-659.3388	-671.5064	-683.0612	-695.9050	-707.7421	-719.1197	-731.7053	-743.2054	-755.1016	-766.3260	-765.8183	-786.3193	-801.8943	-811.7224	-823.2291	-834.8649	-845.1461	-856.9701	-868.7416	-878.4341	-889.4046	-900.9682	-911.9365	-922.8151	-933.7331	-945.1216	-955.6129	-965.4848	-975.9608	-986.8525	-996.6785	-999.8210	-999.7991	-1003.2962	-1028.2157	-1042.1428	-1058.3130	-1067.7450	-1074.7655	-1077.3303	-1089.9005	-1109.0448	-1118.1398	-1126.8694	-1138.7875	-1146.6374	-1157.5269	-1168.0466	-1177.8661	-1185.3242	-1194.0144	-1203.5252	-1191.6509	-1197.6165	-1222.3062	-1241.2644	-1251.1101	-1261.0893	-1269.7838	-1279.1481	-1287.7967	-1288.5692	-1295.6706	-1314.2174	-1324.3913	-1333.5105	-1341.3297	-1342.3779	-1347.0874	-1368.1356	-1377.8652	-1387.8926	-1394.8036	-1404.6821	-1412.1292	-1421.6707	-1429.8970	-1438.4602	-1447.1767	-1456.1295	-1464.9204	-1472.6192	-1480.0664	-1490.4154	-1499.3419	-1507.8461	-1514.9410	-1524.2986	-1531.8114	-1539.1514	-1537.8143	-1550.7872	-1561.5651	-1562.6571	-1580.5299	-1587.9093	-1596.5688	-1605.1780	-1613.3386	-1620.6983	-1628.7757	-1630.4761	-1639.9125	-1648.8347	-1660.4355	-1668.4823	-1675.1832	-1683.8209	-1691.7867	-1698.5752	-1706.9021	-1715.3034
-446.4082	-458.6349	-474.6563	-488.7825	-503.4186	-516.7439	-531.0846	-543.2959	-555.5554	-569.1017	-581.7573	-587.7229	-591.3272	-616.3058	-627.7009	-640.8313	-656.2487	-668.8824	-680.7896	-692.5764	-704.8293	-715.5110	-728.7684	-740.7697	-752.1954	-762.2730	-752.6068	-770.9304	-798.8940	-809.1292	-820.8284	-831.7311	-843.0868	-853.8997	-865.7369	-875.5497	-886.6100	-898.2677	-909.1944	-920.0665	-924.1063	-938.0312	-951.9320	-962.2788	-974.0218	-983.6180	-994.5054	-1000.7161	-988.2202	-993.1464	-1013.7087	-1026.2133	-1055.5140	-1064.8126	-1074.7108	-1080.9062	-1091.4893	-1096.6343	-1114.9119	-1124.9852	-1135.5662	-1143.6568	-1153.6162	-1165.9939	-1175.2224	-1182.5296	-1191.2810	-1201.4615	-1200.3476	-1203.3873	-1210.7886	-1235.7037	-1248.1207	-1258.1327	-1266.1970	-1275.7122	-1285.6564	-1290.3046	-1298.6228	-1311.8189	-1320.3231	-1330.4335	-1338.5154	-1344.2534	-1350.7814	-1365.6364	-1375.1888	-1385.0411	-1392.1031	-1401.1631	-1409.3587	-1419.0403	-1416.2522	-1435.3549	-1444.3733	-1453.1204	-1462.1652	-1468.6297	-1477.0923	-1487.3341	-1495.8055	-1504.9399	-1512.2755	-1521.1342	-1528.9906	-1535.8447	-1540.1821	-1551.4481	-1560.8014	-1564.4867	-1576.7593	-1585.0534	-1593.4438	-1602.2456	-1610.4280	-1617.8293	-1625.9811	-1631.1086	-1636.6715	-1642.6284	-1656.5139	-1665.6855	-1672.8723	-1681.3130	-1688.7755	-1695.7784	-1703.3963	-1711.8632
-443.9747	-455.4333	-471.9273	-486.3906	-500.1163	-513.4284	-528.1149	-540.4269	-552.6820	-566.1057	-578.2164	-584.4009	-597.1134	-614.2684	-627.0903	-639.8553	-652.1936	-665.8493	-677.9250	-689.5126	-701.3585	-708.7335	-725.5164	-737.5965	-749.5824	-759.4828	-745.9256	-757.4629	-794.2501	-805.8115	-817.2241	-828.5973	-840.2944	-849.9628	-862.7628	-873.7268	-883.8591	-895.2652	-906.9754	-917.4207	-918.8256	-922.6707	-948.7456	-959.6024	-970.9515	-981.1342	-991.4547	-1000.2631	-995.8622	-1000.2456	-1018.3285	-1023.7929	-1052.4765	-1061.7597	-1071.2618	-1080.4357	-1087.2766	-1077.5820	-1110.5592	-1122.2672	-1132.2770	-1140.6149	-1150.5393	-1162.4443	-1172.9071	-1179.8991	-1188.1560	-1199.1725	-1204.0964	-1209.4646	-1216.5572	-1225.9433	-1238.4742	-1255.5373	-1263.2667	-1272.9811	-1282.0871	-1289.2826	-1298.7015	-1309.1162	-1317.2724	-1327.6499	-1336.3510	-1344.1549	-1350.7814	-1363.5005	-1371.2190	-1381.1697	-1389.5754	-1397.7076	-1406.3803	-1415.5147	-1407.5095	-1432.5472	-1440.9616	-1450.2033	-1459.3596	-1465.9336	-1474.1248	-1484.1390	-1493.3150	-1500.6243	-1509.8485	-1517.9478	-1525.8590	-1533.5381	-1540.0596	-1549.9053	-1558.2190	-1563.9965	-1571.7894	-1582.7993	-1590.9555	-1599.2037	-1606.7187	-1614.3015	-1622.9720	-1629.4694	-1635.7195	-1643.2871	-1652.6360	-1661.9893	-1671.0996	-1678.2361	-1685.8539	-1692.6380	-1700.1880	-1708.3902
-441.1692	-453.1376	-468.7782	-483.4012	-497.0416	-511.2116	-525.5391	-537.4616	-549.1258	-560.3984	-575.1899	-569.3227	-592.0669	-606.2675	-625.4402	-637.6538	-636.7259	-662.8971	-674.8152	-686.7880	-698.6230	-689.9591	-718.6798	-734.0184	-746.3895	-757.6008	-741.8814	-756.1870	-790.7727	-802.3735	-813.6767	-825.7764	-837.0490	-836.7820	-853.1229	-870.3566	-877.2567	-892.3414	-904.3274	-914.1993	-920.8630	-921.8041	-943.8501	-957.0988	-967.3690	-978.2148	-987.1611	-998.7378	-1001.2479	-1008.7235	-1022.4689	-1031.1569	-1049.0407	-1059.3262	-1055.0632	-1066.3357	-1074.0849	-1069.6905	-1097.7416	-1118.8336	-1129.6137	-1136.4481	-1148.1299	-1158.4461	-1170.6727	-1177.2358	-1184.9696	-1196.2684	-1203.8294	-1210.8936	-1219.4700	-1227.7050	-1234.7145	-1252.5129	-1260.8726	-1269.8998	-1278.6141	-1287.3393	-1296.9377	-1306.8140	-1315.3050	-1324.9494	-1333.5914	-1342.4830	-1349.7857	-1360.2988	-1368.7899	-1378.0600	-1386.9406	-1394.9174	-1403.1349	-1412.7770	-1412.3503	-1429.5862	-1437.5564	-1447.3255	-1456.6460	-1463.9947	-1471.9561	-1481.1278	-1490.2184	-1497.2673	-1506.6118	-1514.6783	-1522.8389	-1531.0389	-1538.5474	-1547.6184	-1554.7176	-1562.4077	-1570.2312	-1579.9609	-1587.4738	-1596.2712	-1603.6374	-1609.4104	-1620.0024	-1627.2876	-1634.4131	-1640.5165	-1650.2922	-1658.6191	-1667.9067	-1675.1701	-1682.5013	-1689.5042	-1697.2184	-1705.4731



