gold2nd_2019-03-18_13.53.41, 10um, 128 pixels, Left.wsf

Pixels in X: 	128
Lines in Y: 	128
X Range: 	10.000
Y Range: 	10.000
Z-Drive Calibration: 	1.0000
Z-Sense Calibration: 	1.9316
X Calibration: 	0.5952
Y Calibration: 	0.5940
X Offset: 	5.000
Y Offset: 	5.000
Rotation(°): 	0
Scan Rate(Hz): 	0.50
Scan Type: 	Vibrating
Vpp: 	0.200
Phase: 	86.51
Demod Gain : 	4dB
Selected (kHz) : 	149.69
Display Type: 	Z_DRIVE
Samples/Pixel: 	25
XY HV Gain: 	3
Z HV Gain: 	3
Z Sensor Gain: 	640
X GPID: 	100.000000000 %, 256, 4096, 0
Y GPID: 	100.000000000 %, 256, 4096, 0
Z GPID: 	1.0000, 100, 1000, 0
Setpoint: 	877





-1274.7472	-1279.4676	-1285.1334	-1289.5365	-1293.8717	-1298.6775	-1304.0172	-1309.2738	-1313.9220	-1317.0558	-1322.1220	-1326.9014	-1330.8143	-1334.8476	-1339.6205	-1345.2513	-1349.6938	-1354.4798	-1359.3381	-1362.9162	-1367.9758	-1372.0944	-1375.7250	-1380.2265	-1385.6429	-1389.4113	-1392.1184	-1397.0314	-1403.4806	-1406.8136	-1411.1313	-1415.6044	-1419.5699	-1424.5244	-1428.0325	-1432.7463	-1437.0312	-1440.6180	-1445.5770	-1449.6233	-1454.7421	-1460.3138	-1463.4760	-1465.8373	-1471.0720	-1476.1601	-1481.5414	-1484.8327	-1489.2533	-1494.2626	-1498.6942	-1502.4276	-1506.6666	-1511.3673	-1515.5625	-1519.0136	-1521.9592	-1526.0121	-1531.8662	-1534.7439	-1540.7292	-1544.8982	-1549.9884	-1554.3258	-1558.2234	-1562.7053	-1567.8656	-1571.3561	-1575.7701	-1579.3723	-1584.5282	-1589.3120	-1592.3277	-1593.8530	-1600.0462	-1605.5895	-1609.0931	-1598.2342	-1605.1189	-1618.6061	-1626.2634	-1630.6030	-1636.0675	-1640.1576	-1644.2587	-1648.3598	-1652.1961	-1657.1682	-1661.8558	-1665.6089	-1669.5327	-1673.8658	-1678.2076	-1681.9345	-1686.8759	-1690.6597	-1695.4939	-1699.0566	-1703.7398	-1706.9481	-1711.8304	-1715.6317	-1719.2294	-1723.1773	-1727.6439	-1733.3863	-1736.6908	-1740.8400	-1743.9126	-1749.0619	-1753.2046	-1756.1195	-1759.8333	-1763.6718	-1769.1494	-1771.4538	-1761.6956	-1764.8841	-1781.2951	-1789.4622	-1794.7888	-1798.9534	-1804.0808	-1807.1293	-1810.9218	-1816.0887	-1820.0037	-1823.6124
-1274.5502	-1279.8308	-1283.9319	-1289.1053	-1295.0316	-1293.6419	-1288.9193	-1283.3498	-1284.5250	-1305.9583	-1319.0976	-1325.0216	-1330.2497	-1335.5566	-1338.5044	-1331.1273	-1330.8581	-1346.4506	-1355.4187	-1362.2969	-1365.8924	-1371.4182	-1376.8433	-1380.1303	-1384.9316	-1382.0582	-1379.5766	-1393.1907	-1399.9157	-1406.7085	-1411.4793	-1415.9940	-1418.9549	-1423.6841	-1429.4177	-1433.0724	-1437.6834	-1441.5678	-1446.6077	-1450.8817	-1453.9323	-1458.8825	-1464.1238	-1468.6691	-1472.5820	-1476.8056	-1481.5129	-1485.7212	-1480.9133	-1468.4634	-1487.4917	-1500.7622	-1506.2223	-1512.1245	-1515.8119	-1520.9832	-1524.6794	-1528.8308	-1532.6912	-1538.0222	-1542.0992	-1545.4978	-1550.1307	-1554.3302	-1559.3833	-1563.7645	-1566.4694	-1571.6844	-1576.0984	-1579.6896	-1584.8323	-1589.2048	-1593.8136	-1597.8928	-1601.6000	-1605.0620	-1610.2092	-1615.0937	-1619.0001	-1622.7663	-1625.8629	-1631.4040	-1635.4744	-1638.9825	-1644.5126	-1648.7034	-1653.1043	-1652.1042	-1649.7473	-1662.5539	-1668.8981	-1673.7301	-1677.2141	-1682.4356	-1685.8539	-1690.8391	-1693.6184	-1698.7349	-1703.2081	-1706.6067	-1711.0119	-1715.2947	-1720.1136	-1724.1643	-1728.0684	-1731.9135	-1736.8527	-1740.8181	-1744.6522	-1748.3266	-1753.5482	-1757.4041	-1761.7788	-1764.4508	-1770.1713	-1774.0514	-1777.9796	-1782.2273	-1786.1424	-1791.8957	-1794.6378	-1798.7345	-1802.7503	-1807.7005	-1812.1167	-1815.6991	-1820.4524	-1823.9801
-1274.5458	-1279.8024	-1284.2208	-1288.7486	-1293.4012	-1298.2945	-1302.9777	-1306.5776	-1300.8506	-1310.9107	-1320.1414	-1325.1923	-1329.8843	-1334.7294	-1339.1916	-1344.9230	-1348.6171	-1352.5125	-1356.3881	-1359.5679	-1365.8115	-1370.5713	-1374.3638	-1379.1170	-1383.2881	-1387.9144	-1392.6480	-1396.8541	-1401.7890	-1405.8113	-1410.8468	-1415.1536	-1419.9244	-1422.9291	-1427.5816	-1432.9039	-1437.2610	-1441.0688	-1444.4740	-1450.3061	-1453.6413	-1459.2808	-1463.2440	-1466.7280	-1472.3741	-1476.4993	-1480.1758	-1484.8371	-1485.6643	-1478.5082	-1490.7918	-1500.0772	-1506.3492	-1510.9165	-1515.9914	-1518.2936	-1523.7537	-1528.5310	-1532.4220	-1537.5823	-1540.6308	-1544.7931	-1549.6011	-1553.5380	-1558.2322	-1562.8650	-1567.2747	-1570.7980	-1572.9186	-1564.6552	-1574.8422	-1584.9418	-1591.5639	-1595.9998	-1601.0835	-1605.6245	-1608.0492	-1613.8945	-1618.1553	-1622.6153	-1626.6398	-1630.2244	-1634.7807	-1639.1400	-1642.1797	-1647.3006	-1651.6074	-1647.4954	-1649.5175	-1660.4114	-1668.5436	-1673.4194	-1677.2250	-1681.3020	-1684.9939	-1689.8981	-1693.9751	-1698.5073	-1702.2627	-1707.0028	-1711.6488	-1715.9184	-1719.6452	-1724.3219	-1728.1472	-1731.9660	-1735.0298	-1739.6845	-1745.5145	-1748.5870	-1753.0798	-1756.1896	-1760.9953	-1764.9082	-1769.0399	-1773.5174	-1777.8614	-1781.8881	-1786.4313	-1789.1930	-1794.1104	-1798.1502	-1802.5664	-1806.9542	-1810.4819	-1815.6400	-1818.8242	-1823.6234
-1273.5632	-1279.0430	-1282.9822	-1287.3743	-1293.0970	-1297.2878	-1301.7062	-1306.3676	-1310.6459	-1315.2328	-1319.2529	-1325.1726	-1329.0111	-1332.8627	-1336.9178	-1342.2313	-1347.4528	-1351.5211	-1355.1648	-1348.6827	-1343.3299	-1360.8459	-1370.9849	-1377.0840	-1381.9663	-1387.8532	-1391.4093	-1395.6177	-1400.3796	-1404.2203	-1408.8948	-1413.0243	-1418.6923	-1422.9597	-1426.1285	-1431.0240	-1435.3833	-1439.5654	-1444.5594	-1448.4153	-1452.6674	-1458.0597	-1462.8282	-1467.3429	-1470.9735	-1474.9346	-1480.0795	-1483.8129	-1488.1154	-1492.4331	-1497.1470	-1501.7558	-1504.9399	-1510.3387	-1513.9518	-1518.9085	-1523.8478	-1525.9049	-1532.6737	-1536.9433	-1540.5279	-1544.4430	-1547.8941	-1553.2229	-1557.8273	-1557.8251	-1546.6336	-1561.3244	-1572.4065	-1577.5427	-1583.7753	-1588.1128	-1591.1853	-1596.1289	-1599.4706	-1603.3660	-1610.4565	-1613.1745	-1616.6234	-1622.0923	-1625.2852	-1629.4432	-1633.3189	-1636.6540	-1641.3919	-1646.3903	-1650.9006	-1655.1176	-1659.4485	-1663.9304	-1668.1803	-1672.0625	-1676.0017	-1667.2415	-1658.6957	-1677.0981	-1689.7187	-1697.2993	-1702.1314	-1705.1076	-1710.6946	-1712.1499	-1698.0259	-1699.5162	-1715.8068	-1713.0537	-1712.7123	-1728.2457	-1726.8561	-1741.0260	-1750.3509	-1756.1830	-1760.3673	-1764.4289	-1769.0793	-1773.3314	-1777.2443	-1781.6321	-1786.9565	-1790.4229	-1794.2176	-1798.4391	-1802.0369	-1806.9849	-1810.6220	-1815.0207	-1818.4128	-1823.7656
-1272.4581	-1277.4630	-1282.0630	-1285.9847	-1282.8727	-1283.4855	-1297.5723	-1304.7569	-1310.1710	-1315.2832	-1320.1633	-1324.4701	-1328.0219	-1333.0465	-1337.3402	-1342.4020	-1346.7635	-1351.0090	-1356.0424	-1360.9641	-1364.6538	-1369.0569	-1374.9743	-1377.9353	-1382.2464	-1387.4308	-1391.7070	-1396.3705	-1399.9770	-1404.5551	-1409.2252	-1414.4052	-1418.1452	-1421.7342	-1426.4831	-1430.8949	-1435.1120	-1439.2437	-1444.0867	-1449.5949	-1452.8666	-1456.5738	-1461.2591	-1465.5550	-1463.7211	-1471.6016	-1477.7423	-1482.6903	-1487.5354	-1491.8510	-1496.2388	-1500.7206	-1505.0165	-1508.6427	-1513.1596	-1516.8865	-1522.1518	-1526.2047	-1530.3955	-1534.6936	-1537.9806	-1542.5828	-1547.6774	-1550.9360	-1556.9388	-1560.6941	-1564.6114	-1568.6359	-1572.8552	-1577.7419	-1581.8255	-1585.7427	-1591.1043	-1595.5578	-1599.1052	-1601.8604	-1603.5914	-1609.9378	-1615.7109	-1620.6282	-1623.5454	-1630.2463	-1633.4808	-1637.9167	-1641.7114	-1645.5827	-1650.5110	-1653.5092	-1658.6257	-1663.2126	-1666.7907	-1670.1039	-1662.1994	-1660.5427	-1666.6178	-1677.1550	-1689.6749	-1695.4107	-1702.1445	-1704.6108	-1709.0971	-1713.7672	-1716.4305	-1721.3478	-1712.3228	-1701.4311	-1707.3004	-1708.8629	-1717.2599	-1735.4718	-1747.1711	-1755.5265	-1756.6294	-1745.8603	-1742.8096	-1758.9207	-1773.3030	-1779.6319	-1784.5077	-1790.0597	-1792.9265	-1797.1786	-1801.4022	-1805.0394	-1811.1669	-1814.4277	-1817.0297	-1822.3016
-1271.2763	-1276.3338	-1281.5531	-1286.0197	-1289.7181	-1294.1059	-1300.2137	-1305.4594	-1310.1316	-1311.6766	-1313.5149	-1321.7412	-1326.1705	-1332.2237	-1336.0665	-1340.9948	-1346.5447	-1349.8360	-1354.3267	-1358.2746	-1364.5531	-1368.7439	-1372.1557	-1377.3203	-1381.4586	-1385.3080	-1389.9037	-1394.4250	-1399.3555	-1403.4500	-1408.0085	-1411.6784	-1417.5324	-1421.5919	-1425.1744	-1429.7635	-1433.2409	-1439.1846	-1443.2047	-1447.2402	-1452.0503	-1456.5628	-1460.5567	-1458.6418	-1442.6117	-1455.9194	-1473.3020	-1480.7273	-1484.5789	-1488.9229	-1494.8141	-1499.8934	-1503.7450	-1508.6646	-1513.4441	-1517.9128	-1517.4270	-1518.3943	-1527.9073	-1533.4549	-1538.5014	-1542.8739	-1547.7409	-1551.9514	-1556.6696	-1560.9261	-1565.0513	-1569.6666	-1572.2490	-1577.0088	-1582.3551	-1586.0622	-1590.0101	-1594.8815	-1598.2626	-1602.9612	-1606.9616	-1610.7103	-1616.2602	-1620.4991	-1615.0368	-1614.8771	-1628.8698	-1636.7962	-1641.9412	-1645.9263	-1648.5721	-1654.5180	-1658.4659	-1662.1359	-1665.5476	-1669.9266	-1674.7368	-1679.5644	-1683.5408	-1688.2262	-1692.4389	-1696.9908	-1699.9364	-1702.9039	-1709.3838	-1713.6468	-1715.0890	-1717.9842	-1724.6545	-1729.7382	-1734.0953	-1737.9185	-1743.1751	-1747.3921	-1750.2283	-1755.3361	-1757.8878	-1757.2794	-1760.9756	-1768.8102	-1774.4497	-1779.3299	-1785.1051	-1788.4906	-1792.2131	-1796.9794	-1800.2883	-1801.9559	-1792.4844	-1784.9431	-1804.5907	-1818.2136
-1271.7906	-1275.7079	-1279.8790	-1285.0896	-1290.5650	-1295.5524	-1299.2662	-1303.9362	-1308.9105	-1312.9219	-1317.5000	-1321.5814	-1326.9540	-1332.0026	-1335.6814	-1339.9488	-1344.7545	-1349.1379	-1354.6112	-1357.3117	-1362.4347	-1368.9584	-1371.3503	-1376.3706	-1380.3732	-1385.6232	-1389.4551	-1393.7400	-1398.0402	-1402.0582	-1407.4854	-1411.3918	-1415.2062	-1420.1323	-1424.8374	-1429.6497	-1432.9542	-1437.0181	-1442.5591	-1447.1198	-1449.8137	-1454.6414	-1460.4538	-1464.4542	-1468.2096	-1473.1794	-1477.1952	-1481.9812	-1485.6972	-1489.2555	-1494.6128	-1499.9678	-1503.6072	-1507.8374	-1511.6649	-1511.6671	-1498.5082	-1495.0483	-1513.1640	-1528.7717	-1536.5778	-1541.8628	-1545.2352	-1551.3627	-1554.8270	-1559.9391	-1562.9854	-1567.4235	-1572.8048	-1576.1422	-1579.8318	-1584.1890	-1588.9028	-1593.4044	-1598.0460	-1600.5014	-1605.8718	-1610.6075	-1614.6604	-1618.6543	-1623.0705	-1627.1410	-1631.7476	-1635.7524	-1640.7376	-1644.3747	-1648.7778	-1652.8461	-1657.6146	-1659.9650	-1655.7217	-1658.4572	-1669.2876	-1677.4439	-1682.5144	-1686.7424	-1690.7757	-1695.3932	-1690.6378	-1681.6500	-1697.3497	-1708.9526	-1716.1657	-1720.4309	-1724.2256	-1729.0204	-1733.4104	-1738.0629	-1741.3456	-1745.5364	-1744.1095	-1749.4317	-1757.4151	-1761.9473	-1766.7946	-1770.5937	-1775.1675	-1779.0673	-1782.5162	-1773.1585	-1785.5778	-1794.4759	-1798.7017	-1804.0042	-1797.2005	-1786.6326	-1803.2492	-1818.0342
-1268.9741	-1275.1367	-1279.7302	-1284.0129	-1289.0244	-1294.1518	-1298.0034	-1302.5466	-1307.3042	-1311.8298	-1316.4605	-1321.0453	-1325.0260	-1329.4334	-1334.1320	-1338.9049	-1343.3736	-1347.3763	-1352.3833	-1357.3992	-1361.6075	-1366.4045	-1370.3174	-1375.4864	-1379.3446	-1380.8021	-1366.3870	-1365.6123	-1386.9953	-1399.2285	-1404.1284	-1410.3698	-1414.8254	-1419.3882	-1423.7213	-1427.9099	-1432.5253	-1435.8079	-1440.4977	-1445.2181	-1449.1200	-1454.7027	-1458.2173	-1462.7298	-1467.9754	-1471.4506	-1476.6218	-1481.0971	-1484.6008	-1488.7259	-1493.6061	-1497.6656	-1501.7492	-1506.2508	-1510.8617	-1515.0154	-1519.4053	-1524.8567	-1528.7783	-1532.3651	-1536.8864	-1541.2851	-1546.4038	-1549.9118	-1554.2558	-1558.8230	-1563.1999	-1566.4912	-1570.8637	-1574.9320	-1579.4970	-1584.4209	-1587.9530	-1592.0782	-1596.7154	-1599.8077	-1600.2760	-1597.2538	-1607.5328	-1616.2974	-1621.7575	-1626.9068	-1630.8328	-1635.5510	-1639.3654	-1643.5978	-1647.6114	-1643.6547	-1642.2169	-1655.3846	-1650.7802	-1651.9226	-1666.4099	-1675.8507	-1681.8097	-1685.9371	-1691.1455	-1694.0233	-1698.4855	-1702.9258	-1707.7403	-1711.6094	-1715.0255	-1720.1048	-1724.0746	-1728.4339	-1732.4672	-1736.2641	-1740.4658	-1744.9367	-1748.6352	-1752.1454	-1756.4434	-1761.5512	-1757.9512	-1739.4832	-1749.3880	-1771.0598	-1773.4540	-1762.1442	-1765.2846	-1785.5625	-1797.3952	-1802.2294	-1808.3220	-1812.6332	-1817.1719	-1820.0191
-1268.8122	-1274.9726	-1279.4916	-1285.3128	-1289.4095	-1294.4670	-1298.2748	-1303.9209	-1308.1642	-1311.7007	-1316.3730	-1320.5200	-1326.4835	-1330.2081	-1335.2918	-1338.8786	-1343.6144	-1348.5864	-1352.5803	-1357.4955	-1361.0889	-1366.3367	-1370.1708	-1374.0618	-1379.1783	-1383.6405	-1386.8137	-1390.0284	-1396.0378	-1401.1894	-1404.8002	-1409.5360	-1413.6765	-1418.4997	-1423.3099	-1426.6253	-1431.9957	-1437.1078	-1440.2351	-1444.2792	-1447.8989	-1453.4640	-1458.4405	-1462.2549	-1465.6710	-1471.2624	-1475.7355	-1479.9066	-1483.8305	-1487.9447	-1492.8599	-1496.6086	-1501.2371	-1505.4323	-1509.6888	-1514.0174	-1518.0047	-1522.6113	-1526.9160	-1532.5599	-1536.1795	-1539.7729	-1544.6793	-1549.4172	-1553.8619	-1557.3546	-1560.5891	-1566.0645	-1569.9489	-1574.3761	-1578.7704	-1583.7994	-1587.9705	-1592.3277	-1595.8248	-1600.5561	-1606.4254	-1608.7495	-1602.0749	-1599.3415	-1594.7065	-1609.4433	-1625.7623	-1633.9229	-1638.6192	-1643.8342	-1647.0402	-1651.1807	-1655.4875	-1659.9759	-1664.3440	-1668.0490	-1672.6403	-1677.4570	-1681.2539	-1685.9437	-1689.9025	-1693.9511	-1698.6890	-1701.4836	-1706.1690	-1710.6487	-1714.7716	-1718.5948	-1722.4989	-1727.3025	-1731.8303	-1735.7651	-1739.6255	-1743.9848	-1748.1865	-1752.3642	-1756.3931	-1759.5947	-1765.2409	-1768.4600	-1772.5655	-1777.0386	-1780.8705	-1780.4328	-1770.2567	-1785.2933	-1796.3732	-1801.7764	-1806.9061	-1810.8649	-1814.4277	-1819.6580
-1264.5229	-1272.7885	-1278.3952	-1283.7853	-1278.5506	-1271.7053	-1277.4761	-1296.1126	-1304.9648	-1311.4294	-1315.8259	-1319.6250	-1324.0499	-1328.8448	-1333.5542	-1337.8063	-1341.8308	-1347.0130	-1352.3352	-1355.4559	-1359.8021	-1364.3824	-1369.2473	-1374.0180	-1377.8280	-1382.7191	-1386.5336	-1391.7967	-1395.8256	-1399.8851	-1405.5334	-1409.8117	-1412.8252	-1418.2021	-1422.6096	-1427.9559	-1432.0263	-1435.4271	-1435.3790	-1421.2418	-1421.3162	-1441.1761	-1455.4139	-1461.7187	-1467.3408	-1471.4331	-1475.3066	-1480.5281	-1484.3776	-1488.7719	-1492.9364	-1497.4927	-1496.2803	-1482.9770	-1495.7901	-1511.1791	-1518.7663	-1522.8499	-1527.5834	-1531.0783	-1522.3400	-1532.2426	-1538.7487	-1542.8060	-1552.2666	-1557.1248	-1561.8824	-1565.1082	-1570.0868	-1574.2995	-1577.8032	-1582.2150	-1586.4737	-1591.4676	-1593.2906	-1579.3132	-1579.9566	-1600.2366	-1609.7584	-1612.7281	-1618.6981	-1623.5345	-1629.1105	-1632.4457	-1637.6322	-1641.8274	-1645.3245	-1650.1193	-1654.0891	-1657.9910	-1660.4968	-1666.2764	-1670.3884	-1675.8419	-1679.8511	-1683.9610	-1687.8585	-1691.8546	-1697.0324	-1701.2735	-1705.4052	-1710.1388	-1714.4368	-1718.4219	-1722.2254	-1726.6307	-1729.6660	-1735.2289	-1739.1725	-1743.2473	-1746.9939	-1751.0271	-1754.7474	-1743.6324	-1739.3147	-1758.9382	-1770.4515	-1776.3689	-1781.5314	-1785.7813	-1789.8014	-1794.9945	-1797.3755	-1801.5116	-1806.6238	-1810.9940	-1813.9002	-1818.6207
-1266.1182	-1270.7336	-1277.8044	-1282.0499	-1284.8204	-1278.2180	-1287.2715	-1298.8110	-1305.0764	-1310.0113	-1314.2962	-1319.3055	-1323.4547	-1327.8884	-1329.6545	-1315.2460	-1313.3442	-1332.8036	-1346.7876	-1354.4952	-1359.6642	-1363.9382	-1368.2297	-1372.9391	-1377.0380	-1381.1172	-1386.1856	-1389.8009	-1394.8605	-1399.2220	-1403.4150	-1407.4898	-1412.4706	-1417.3092	-1421.0930	-1425.8703	-1429.7591	-1434.4620	-1438.7622	-1437.5411	-1428.3892	-1443.8897	-1454.5604	-1460.0577	-1464.5265	-1469.3103	-1473.0000	-1478.2938	-1482.4321	-1486.4215	-1491.5971	-1495.1643	-1498.4950	-1503.0316	-1508.0343	-1512.9407	-1516.7114	-1520.6965	-1525.8721	-1529.4655	-1533.7766	-1538.7815	-1540.2522	-1529.1109	-1530.3999	-1548.8898	-1558.7705	-1564.5611	-1569.1173	-1572.3781	-1577.9038	-1581.8255	-1585.7515	-1590.5441	-1594.0631	-1599.1117	-1602.6504	-1606.2701	-1611.1546	-1614.2556	-1619.8251	-1624.1757	-1627.1804	-1633.6055	-1636.1550	-1641.6239	-1645.9307	-1649.2877	-1655.2424	-1657.5927	-1662.1468	-1666.6440	-1670.7145	-1674.8900	-1678.9101	-1682.6960	-1688.1233	-1692.4695	-1696.5159	-1700.5404	-1704.6261	-1708.6047	-1712.9618	-1717.5159	-1721.1618	-1725.7487	-1729.4362	-1732.6882	-1738.0958	-1742.1268	-1746.9588	-1749.8935	-1753.6816	-1758.5202	-1762.6476	-1766.7027	-1771.5479	-1775.7015	-1779.2861	-1784.0415	-1786.5363	-1791.9089	-1797.0385	-1800.1132	-1804.6783	-1809.4665	-1812.9111	-1817.6884
-1262.4942	-1250.5345	-1254.2351	-1274.1672	-1284.3696	-1290.2871	-1295.3489	-1300.2203	-1304.1594	-1308.4641	-1305.7307	-1312.6352	-1321.4589	-1326.5316	-1331.3483	-1335.0664	-1323.7261	-1326.5097	-1343.7063	-1352.0507	-1357.8434	-1363.7018	-1367.9277	-1371.6261	-1376.5019	-1380.7933	-1385.6297	-1389.2822	-1393.6765	-1399.2942	-1403.0408	-1407.8596	-1411.2955	-1415.7401	-1421.4541	-1424.7827	-1429.5118	-1434.2213	-1438.3289	-1443.2266	-1446.6318	-1451.4113	-1455.9325	-1460.4144	-1463.9990	-1468.9908	-1473.5274	-1477.8167	-1482.2964	-1485.8416	-1490.4482	-1494.6850	-1498.8386	-1502.8412	-1507.3078	-1512.0938	-1516.6807	-1520.0706	-1524.3424	-1529.6602	-1533.5578	-1538.0572	-1541.6724	-1535.7353	-1528.7739	-1546.0208	-1556.7090	-1563.4209	-1567.6730	-1572.4000	-1575.7548	-1580.3942	-1585.6355	-1588.5526	-1592.1657	-1597.5886	-1601.5256	-1606.4539	-1609.7321	-1614.1046	-1618.8272	-1622.5628	-1627.2197	-1631.0166	-1635.6254	-1639.7725	-1645.0203	-1647.4254	-1650.1259	-1657.5227	-1661.6172	-1666.3136	-1669.7319	-1673.5156	-1678.8685	-1682.5450	-1686.3726	-1691.2812	-1695.7368	-1699.8467	-1702.9520	-1708.6988	-1712.3403	-1716.4939	-1720.6847	-1724.7727	-1729.8082	-1734.1413	-1737.6537	-1741.5316	-1745.3394	-1750.5281	-1754.2441	-1757.6777	-1757.8331	-1751.2241	-1763.7637	-1772.5545	-1779.0279	-1783.5207	-1788.2608	-1791.2523	-1794.4693	-1797.8045	-1802.9253	-1806.9301	-1811.9788	-1816.5854
-1265.4858	-1271.1713	-1275.9770	-1280.0956	-1284.3412	-1287.8142	-1284.0567	-1294.8302	-1301.9995	-1306.1006	-1301.7281	-1306.0502	-1315.3663	-1324.2950	-1330.7946	-1335.9505	-1339.4695	-1343.9076	-1348.3238	-1352.9304	-1357.8566	-1361.3624	-1366.4483	-1371.9784	-1375.2829	-1378.9376	-1384.0475	-1388.6191	-1393.1229	-1396.3552	-1399.8719	-1405.4699	-1409.6826	-1413.7924	-1418.5916	-1423.0560	-1428.5511	-1431.9541	-1437.4886	-1441.2745	-1446.1175	-1450.3390	-1454.0330	-1458.6549	-1463.3316	-1468.0323	-1469.2666	-1460.7930	-1474.9958	-1483.6554	-1489.1155	-1492.4331	-1498.4622	-1500.9636	-1498.5650	-1507.5047	-1514.3348	-1520.1975	-1520.9941	-1507.8899	-1519.9218	-1532.8531	-1540.1734	-1544.8588	-1549.1699	-1554.5578	-1555.1640	-1540.6570	-1550.6274	-1566.7757	-1574.9932	-1580.2038	-1583.7535	-1587.4125	-1593.0323	-1597.7659	-1600.3001	-1604.6725	-1597.2844	-1589.9270	-1592.6537	-1600.4664	-1620.5954	-1624.2610	-1613.5859	-1628.3118	-1641.3394	-1638.8993	-1626.3312	-1633.0365	-1653.9906	-1663.8494	-1669.6925	-1673.6623	-1677.4723	-1683.5364	-1686.5739	-1680.6346	-1668.5239	-1671.5045	-1691.1061	-1704.4139	-1711.1432	-1716.5508	-1720.8489	-1724.6129	-1726.6744	-1726.3330	-1728.0291	-1736.4282	-1743.1663	-1747.1098	-1751.7909	-1756.7673	-1760.7174	-1765.8558	-1769.3244	-1774.4606	-1778.0343	-1781.4461	-1786.1336	-1791.4209	-1794.1979	-1798.1809	-1800.2883	-1805.2276	-1810.9415	-1814.2198
-1264.9628	-1268.5233	-1273.4035	-1279.7258	-1284.1705	-1287.7573	-1287.7595	-1276.5854	-1291.9131	-1304.5380	-1309.9106	-1316.4343	-1321.4632	-1324.1922	-1328.6237	-1334.3771	-1338.5985	-1343.0695	-1341.7017	-1332.3440	-1349.2649	-1359.2965	-1365.5664	-1369.9870	-1374.9634	-1379.5350	-1383.1721	-1387.3192	-1391.7267	-1396.4974	-1401.8437	-1406.3431	-1406.7567	-1395.8540	-1403.5769	-1415.4031	-1424.8111	-1431.9081	-1434.7706	-1418.7273	-1423.2442	-1439.0905	-1430.5973	-1429.8970	-1446.9053	-1462.6422	-1471.2252	-1474.2102	-1472.7593	-1480.9811	-1488.6056	-1493.0853	-1497.2257	-1501.8783	-1505.6665	-1511.3060	-1514.3588	-1517.6480	-1523.9178	-1527.2486	-1532.0784	-1535.1050	-1540.0661	-1544.6202	-1548.6491	-1552.1878	-1539.8539	-1544.8478	-1559.8341	-1568.0428	-1573.6977	-1578.7464	-1582.7643	-1587.0033	-1590.9336	-1595.0479	-1587.5722	-1579.0943	-1598.0766	-1609.1369	-1616.7329	-1621.6415	-1625.1780	-1630.2354	-1634.3540	-1638.2406	-1643.7948	-1646.2130	-1651.6293	-1655.7982	-1659.5361	-1661.7310	-1650.2725	-1665.0903	-1674.5770	-1679.6717	-1685.4053	-1689.8456	-1693.6316	-1698.6277	-1701.3129	-1706.5979	-1711.6028	-1713.8831	-1718.1899	-1723.1248	-1727.5564	-1731.0578	-1734.0800	-1739.6101	-1743.7834	-1748.0071	-1751.4648	-1756.2552	-1760.9122	-1764.3436	-1768.3199	-1772.4845	-1776.6184	-1782.2667	-1784.7900	-1789.9874	-1794.1870	-1797.5462	-1798.9621	-1789.0464	-1794.5153	-1810.8408
-1252.3903	-1267.2869	-1272.8804	-1277.2770	-1282.9953	-1288.9784	-1293.0904	-1297.6445	-1302.7589	-1307.6653	-1311.2477	-1315.6005	-1320.6360	-1324.3870	-1330.4489	-1333.9656	-1337.3358	-1343.2817	-1347.5076	-1348.8556	-1355.4406	-1360.9685	-1365.2096	-1369.6390	-1373.6132	-1378.1322	-1383.0890	-1388.6497	-1391.5516	-1396.6046	-1401.2222	-1405.1460	-1410.5208	-1411.1445	-1399.6028	-1402.3055	-1420.4584	-1429.6738	-1435.6547	-1440.9572	-1444.9686	-1448.1571	-1449.0062	-1454.1118	-1460.9178	-1465.9073	-1471.2339	-1475.4838	-1479.7491	-1483.2812	-1487.4873	-1492.6148	-1497.0529	-1501.5522	-1505.1741	-1510.5138	-1510.0192	-1503.9836	-1498.1558	-1506.0998	-1525.7408	-1533.5665	-1526.8656	-1521.4055	-1536.9695	-1551.5050	-1554.7526	-1558.7158	-1564.1234	-1560.2565	-1547.3536	-1547.7956	-1566.1280	-1583.1779	-1589.8219	-1594.8203	-1599.0833	-1599.5954	-1607.3752	-1611.6776	-1616.9189	-1621.2235	-1625.9680	-1629.6948	-1633.3035	-1634.1242	-1637.9123	-1645.3289	-1650.4585	-1654.3802	-1658.4878	-1661.7945	-1656.1922	-1661.4597	-1669.1870	-1658.9364	-1669.6050	-1684.7904	-1691.8458	-1684.5037	-1683.7749	-1699.7504	-1708.9264	-1714.1742	-1718.3191	-1721.9803	-1726.9458	-1730.9440	-1734.7825	-1739.9953	-1743.0766	-1747.8517	-1752.1235	-1755.7431	-1760.2447	-1764.3939	-1769.0027	-1772.9944	-1776.7322	-1781.1244	-1785.4596	-1789.6351	-1793.3313	-1797.9948	-1801.0936	-1804.0327	-1809.3965	-1814.3839
-1262.7240	-1268.5868	-1272.6791	-1277.5768	-1282.0521	-1286.9979	-1292.1078	-1296.7582	-1300.1043	-1305.7920	-1310.5474	-1314.9987	-1319.3711	-1323.5597	-1327.4748	-1332.4491	-1336.4451	-1341.0955	-1346.1420	-1350.0943	-1353.9612	-1358.4037	-1362.5945	-1368.3938	-1372.5737	-1375.5937	-1381.5418	-1382.3646	-1379.4037	-1390.9892	-1396.6769	-1402.9226	-1408.5665	-1412.4860	-1416.3638	-1420.7604	-1425.8397	-1430.5448	-1434.1775	-1438.6660	-1442.6861	-1447.3058	-1452.1466	-1455.9063	-1460.6333	-1464.8394	-1468.9077	-1472.6695	-1472.2625	-1466.6470	-1462.4978	-1473.0284	-1490.7393	-1500.0904	-1504.3468	-1502.0271	-1509.6888	-1516.2080	-1521.8914	-1526.8065	-1529.6799	-1533.9058	-1538.8603	-1542.8979	-1546.0580	-1551.3409	-1555.8074	-1560.3702	-1564.0949	-1568.0757	-1570.5595	-1576.8271	-1580.4205	-1585.8653	-1590.4916	-1594.6824	-1597.8140	-1591.3757	-1596.5097	-1608.5416	-1615.5708	-1619.1970	-1623.6264	-1627.8982	-1632.9293	-1637.0851	-1640.8930	-1645.9329	-1649.4409	-1654.0847	-1658.0326	-1662.5408	-1666.4602	-1667.4756	-1671.3688	-1678.3477	-1683.4117	-1687.5259	-1691.7583	-1694.7673	-1700.7023	-1703.7180	-1708.5215	-1712.2965	-1715.9971	-1720.8095	-1724.9478	-1728.7600	-1733.6445	-1738.6538	-1742.5929	-1745.5714	-1751.1759	-1755.2223	-1758.9098	-1762.5097	-1766.5670	-1771.5522	-1775.0690	-1779.1088	-1783.3368	-1787.0156	-1791.7338	-1796.6577	-1800.0126	-1804.9146	-1808.9085	-1813.3860
-1262.9976	-1267.1052	-1271.4230	-1273.0489	-1272.1342	-1280.8069	-1288.6392	-1294.5479	-1299.4981	-1304.6037	-1309.1250	-1313.0619	-1318.0034	-1322.2795	-1326.9715	-1331.6240	-1335.8477	-1340.6994	-1344.5816	-1349.1532	-1353.4491	-1358.6794	-1362.6098	-1366.9122	-1371.2387	-1376.4362	-1380.5329	-1384.3517	-1388.1355	-1382.9730	-1394.6635	-1400.5241	-1406.2555	-1411.5340	-1416.3485	-1419.9288	-1424.8067	-1430.5448	-1431.7265	-1418.3815	-1426.8048	-1443.0187	-1450.5425	-1455.5343	-1458.6309	-1463.3184	-1468.4525	-1473.3392	-1478.4754	-1482.1147	-1485.4346	-1491.1792	-1494.1335	-1500.0488	-1500.9636	-1499.5739	-1502.2854	-1511.5927	-1519.3243	-1525.7408	-1529.8244	-1532.9954	-1538.8647	-1542.3005	-1533.3871	-1531.9778	-1548.3449	-1557.1817	-1561.4623	-1567.0208	-1570.7718	-1575.0633	-1581.5191	-1584.0117	-1587.7976	-1594.1484	-1597.5295	-1602.5607	-1605.2503	-1609.1763	-1613.9514	-1618.5033	-1621.0243	-1626.1299	-1631.4565	-1635.8312	-1638.7505	-1640.1226	-1638.2362	-1647.4626	-1655.6319	-1660.0153	-1664.9765	-1669.0885	-1674.1897	-1676.8617	-1682.0811	-1686.4645	-1690.2592	-1695.1306	-1697.9230	-1703.9456	-1707.1319	-1711.2395	-1715.0977	-1719.5840	-1723.9783	-1728.6900	-1732.6138	-1736.3100	-1741.1749	-1745.7049	-1748.7665	-1752.9266	-1757.4107	-1762.6038	-1765.0986	-1769.4886	-1774.0186	-1778.3845	-1782.1639	-1785.7222	-1790.2588	-1794.7976	-1798.3362	-1803.1201	-1805.9125	-1810.9612
-1261.9012	-1266.9542	-1271.8344	-1276.4432	-1281.0826	-1285.9453	-1286.9191	-1277.2310	-1291.3813	-1301.5727	-1308.3109	-1312.4973	-1316.9836	-1321.9469	-1327.1509	-1330.5670	-1334.1998	-1339.1456	-1344.3344	-1348.5974	-1352.0288	-1356.4232	-1361.7257	-1365.8443	-1370.1905	-1374.6395	-1379.1630	-1384.0366	-1387.9407	-1391.8251	-1396.1210	-1400.8458	-1404.6558	-1409.3215	-1412.3722	-1404.4917	-1409.4134	-1421.8414	-1429.6847	-1432.9542	-1440.2701	-1443.1106	-1448.4394	-1453.2889	-1456.9852	-1462.3227	-1464.9707	-1470.6759	-1474.3940	-1478.4710	-1483.1739	-1486.6294	-1492.5425	-1496.3044	-1496.7246	-1502.3576	-1497.6831	-1502.4254	-1513.0830	-1519.7292	-1525.9859	-1532.1944	-1536.2539	-1539.4906	-1544.5414	-1549.9403	-1553.0347	-1557.1992	-1561.7752	-1565.7822	-1570.6777	-1562.1626	-1554.9342	-1557.5144	-1567.3841	-1583.8235	-1593.3825	-1600.1097	-1605.0380	-1609.3032	-1612.6165	-1617.4572	-1622.1645	-1626.3291	-1629.3797	-1634.1833	-1638.5076	-1642.2695	-1646.0270	-1650.5461	-1655.2730	-1655.7654	-1659.4792	-1666.4930	-1671.4301	-1677.5773	-1680.9650	-1684.1163	-1687.9417	-1692.4432	-1697.3344	-1701.1794	-1706.0552	-1710.8894	-1715.2378	-1718.1440	-1715.7148	-1709.6726	-1724.5276	-1734.0122	-1739.0061	-1743.9607	-1748.4010	-1752.6115	-1756.7848	-1760.7612	-1766.2059	-1769.3616	-1771.7295	-1776.5922	-1781.0324	-1786.8252	-1790.3048	-1793.4057	-1797.0385	-1787.5386	-1793.7253	-1804.0349
-1258.9184	-1264.6608	-1267.7158	-1273.6945	-1277.6709	-1283.0806	-1287.1248	-1290.6416	-1294.9134	-1295.8347	-1289.9873	-1301.4568	-1309.8559	-1315.6574	-1323.0739	-1328.1423	-1333.2522	-1338.0602	-1342.8769	-1347.1115	-1351.6984	-1356.4998	-1361.2092	-1364.2095	-1370.1161	-1374.3091	-1378.2767	-1383.4720	-1387.9013	-1392.6786	-1396.4361	-1401.3316	-1405.8463	-1409.6520	-1415.1099	-1418.3487	-1423.2333	-1427.8464	-1432.1335	-1436.5782	-1439.2897	-1429.3827	-1441.9617	-1451.7395	-1457.8036	-1463.0383	-1466.9906	-1471.3149	-1475.1074	-1479.0269	-1484.3513	-1489.6954	-1492.9408	-1496.5758	-1503.3314	-1506.3339	-1504.1805	-1509.3102	-1517.7531	-1523.6574	-1526.9444	-1531.1659	-1536.5953	-1540.4798	-1543.8652	-1548.2749	-1553.5118	-1558.2541	-1561.6155	-1565.4408	-1569.5156	-1571.0672	-1568.0888	-1578.7639	-1585.8697	-1590.7389	-1596.0567	-1599.2956	-1603.4711	-1608.5263	-1613.4874	-1616.6847	-1620.8887	-1625.1845	-1629.8765	-1634.4306	-1637.3718	-1641.7990	-1646.8301	-1650.1149	-1652.4368	-1655.8836	-1657.5665	-1666.9701	-1670.7167	-1675.4261	-1680.9913	-1685.4710	-1689.0446	-1690.6794	-1693.3646	-1700.5076	-1705.2542	-1710.0315	-1713.8175	-1718.4285	-1722.6324	-1727.4316	-1730.8806	-1735.9489	-1739.3629	-1743.3020	-1747.8364	-1751.5479	-1756.3712	-1759.8946	-1763.1247	-1768.2499	-1772.9419	-1775.9400	-1779.5487	-1784.3851	-1789.0420	-1793.5195	-1796.3820	-1798.2772	-1801.7764	-1808.5299
-1259.9075	-1264.4879	-1269.3724	-1273.0971	-1278.7520	-1284.1179	-1281.1723	-1272.0226	-1284.1902	-1299.0189	-1305.2318	-1310.1338	-1315.2044	-1320.2224	-1323.9405	-1328.4246	-1333.4995	-1338.5000	-1341.9162	-1345.2404	-1350.8821	-1355.2020	-1359.6117	-1364.7172	-1366.8378	-1371.9609	-1377.2306	-1381.3886	-1384.8813	-1390.0613	-1394.6920	-1397.8849	-1402.4915	-1407.0981	-1411.4837	-1416.8956	-1419.9572	-1423.6753	-1429.4418	-1434.0484	-1424.0408	-1428.2579	-1441.9573	-1450.3718	-1455.1382	-1458.9744	-1463.6664	-1469.0784	-1472.7002	-1476.9610	-1481.1168	-1486.0845	-1491.7503	-1494.2210	-1498.6832	-1502.7931	-1508.0431	-1511.4045	-1516.3897	-1520.3048	-1525.2834	-1528.9052	-1532.3629	-1537.5013	-1542.1408	-1546.3206	-1550.6909	-1553.6803	-1559.3286	-1564.5917	-1567.7758	-1572.3978	-1576.7724	-1581.2981	-1585.3225	-1589.7979	-1592.7894	-1598.2145	-1603.1559	-1606.4079	-1609.8787	-1615.1047	-1618.8272	-1623.3134	-1627.0884	-1632.4107	-1637.1923	-1640.3283	-1644.9350	-1649.3512	-1654.0213	-1658.1333	-1662.3416	-1666.3880	-1670.8917	-1675.7653	-1679.2471	-1683.7640	-1687.8541	-1692.4958	-1695.3823	-1699.7941	-1704.5058	-1708.9220	-1713.0691	-1716.1350	-1721.7395	-1725.5321	-1729.3837	-1733.0733	-1737.7390	-1742.6323	-1746.3067	-1750.3574	-1754.0843	-1759.5247	-1763.1991	-1766.9763	-1771.6091	-1776.0538	-1780.2249	-1783.5557	-1788.6328	-1792.9702	-1796.9991	-1801.0411	-1803.3193	-1809.3834
-1256.9969	-1263.2383	-1267.5910	-1272.2786	-1276.6708	-1280.8988	-1286.6937	-1290.8342	-1294.8587	-1299.6754	-1304.5774	-1309.1797	-1313.6856	-1317.1346	-1322.5925	-1320.2990	-1315.8478	-1326.7373	-1339.0865	-1344.9778	-1349.5340	-1353.5848	-1358.1717	-1363.3517	-1368.1968	-1372.7312	-1376.3421	-1381.2113	-1386.7349	-1390.3611	-1394.2565	-1399.1541	-1402.8197	-1407.5905	-1412.1227	-1416.8081	-1421.1499	-1425.2357	-1429.6606	-1433.5626	-1438.2720	-1443.3623	-1447.3124	-1451.3019	-1456.4096	-1460.7449	-1465.3033	-1468.6035	-1473.3195	-1478.5761	-1479.0138	-1483.5700	-1491.3302	-1496.1906	-1498.7926	-1499.5695	-1506.8088	-1513.4878	-1517.9632	-1522.1386	-1526.1216	-1530.4590	-1534.7636	-1539.0967	-1542.6857	-1546.4760	-1539.7751	-1538.8056	-1552.5773	-1562.6987	-1568.8153	-1573.9756	-1577.3151	-1582.2763	-1586.5743	-1585.3313	-1568.4958	-1571.9251	-1594.3038	-1605.3225	-1611.6798	-1615.3957	-1620.0067	-1624.3201	-1627.8456	-1632.7302	-1636.5643	-1640.2321	-1645.6462	-1649.1433	-1653.0255	-1657.7416	-1661.7507	-1665.6417	-1669.7932	-1674.2772	-1678.6672	-1682.4334	-1686.2019	-1690.8107	-1694.3318	-1699.5293	-1703.2059	-1706.6745	-1713.0800	-1716.0453	-1719.6759	-1724.1140	-1727.9481	-1732.7210	-1735.9139	-1740.4133	-1745.1534	-1749.2304	-1754.5373	-1755.1304	-1760.7152	-1766.4795	-1770.7797	-1774.7014	-1778.2904	-1777.4172	-1781.3804	-1782.3499	-1777.1349	-1788.7969	-1801.0324	-1806.6369
-1257.5725	-1261.8486	-1266.1204	-1272.3246	-1276.7408	-1281.3124	-1285.1903	-1290.2543	-1294.9528	-1299.6054	-1303.9056	-1308.7026	-1312.7249	-1317.3534	-1321.6930	-1326.0042	-1331.2717	-1334.1889	-1337.9923	-1343.9820	-1348.2100	-1353.6417	-1357.3598	-1361.0779	-1366.6212	-1370.6916	-1375.2501	-1379.0076	-1383.4741	-1376.6747	-1378.6618	-1392.7005	-1400.0383	-1406.1746	-1410.5383	-1415.0530	-1418.7317	-1423.1523	-1428.3804	-1431.7615	-1436.5607	-1440.9944	-1445.5792	-1450.3302	-1454.3700	-1458.1801	-1452.7462	-1449.4264	-1461.3357	-1457.6308	-1451.4091	-1473.0569	-1485.1916	-1490.0981	-1484.8831	-1481.8653	-1496.2038	-1508.3319	-1514.5645	-1518.5168	-1523.4232	-1526.9553	-1528.6120	-1535.1335	-1540.9218	-1545.4453	-1548.5025	-1551.4240	-1556.5733	-1561.5104	-1565.1541	-1570.7521	-1575.1245	-1579.6261	-1582.4579	-1588.0406	-1592.3671	-1596.7855	-1599.9915	-1604.5128	-1608.9071	-1614.1659	-1618.9629	-1621.2344	-1616.8729	-1626.9725	-1632.7411	-1638.9562	-1643.1623	-1647.6333	-1652.6054	-1655.3343	-1659.6083	-1665.0968	-1669.7231	-1674.3691	-1677.7043	-1682.4137	-1686.4185	-1690.1082	-1693.7563	-1698.8181	-1703.6151	-1707.4339	-1710.5633	-1715.9775	-1720.5403	-1724.3284	-1728.4317	-1732.1323	-1736.9271	-1741.0042	-1743.9651	-1749.0750	-1750.9790	-1737.9076	-1742.7549	-1761.5074	-1769.3354	-1774.7211	-1778.7280	-1782.4987	-1787.0615	-1790.8300	-1795.6357	-1797.1983	-1802.4767	-1807.2497
-1256.0559	-1261.6123	-1265.6718	-1270.1887	-1274.9266	-1279.5442	-1285.1771	-1288.6458	-1293.4209	-1298.4039	-1302.8355	-1307.0897	-1311.8101	-1316.4321	-1320.8286	-1326.0348	-1329.6085	-1335.7514	-1338.5394	-1343.1833	-1347.7045	-1352.1207	-1357.2154	-1362.0693	-1359.9531	-1364.9427	-1374.6702	-1379.6422	-1383.5551	-1387.8378	-1392.5648	-1397.9593	-1402.0866	-1405.3911	-1409.8730	-1414.5299	-1418.8652	-1423.0560	-1427.9187	-1432.7529	-1437.1669	-1442.0996	-1445.6864	-1450.6716	-1455.7947	-1458.4142	-1463.0449	-1467.5202	-1472.6148	-1475.7355	-1479.9088	-1485.3952	-1489.0805	-1493.8184	-1497.8297	-1502.4451	-1507.1174	-1511.2819	-1515.5362	-1519.0639	-1523.5611	-1528.8855	-1532.4067	-1535.5602	-1541.0290	-1545.4168	-1548.9073	-1553.3914	-1557.9717	-1562.1188	-1566.6379	-1570.3801	-1574.7919	-1578.5035	-1583.7950	-1587.9443	-1592.5487	-1596.0786	-1600.6283	-1605.3881	-1608.1959	-1613.4021	-1617.5294	-1605.8739	-1616.1070	-1627.2569	-1633.5727	-1638.8337	-1642.5277	-1646.9242	-1651.5462	-1656.0237	-1659.2756	-1663.4686	-1667.9461	-1673.3493	-1676.4613	-1681.0219	-1684.7882	-1689.3291	-1693.3602	-1696.3911	-1701.8556	-1705.4862	-1695.6405	-1696.8879	-1711.3096	-1721.1924	-1725.6612	-1730.3072	-1734.7934	-1738.6122	-1743.8688	-1747.0639	-1749.7513	-1753.8283	-1760.1637	-1764.1532	-1767.4249	-1771.0489	-1775.4761	-1780.5904	-1785.1248	-1789.2740	-1793.4605	-1797.8811	-1799.0694	-1797.6491
-1254.3139	-1260.6844	-1265.0678	-1270.3047	-1274.3401	-1278.3011	-1283.4198	-1288.6677	-1293.3596	-1297.3163	-1302.4021	-1306.6980	-1311.4250	-1313.5302	-1318.9312	-1324.3213	-1329.5823	-1333.1275	-1337.4387	-1342.9885	-1347.4397	-1351.3789	-1355.9220	-1360.6424	-1364.3780	-1368.7089	-1373.8451	-1377.8237	-1382.5747	-1386.0171	-1374.8387	-1386.5314	-1397.1780	-1403.4763	-1408.1441	-1413.3197	-1417.5324	-1420.9836	-1426.4240	-1430.5885	-1431.0700	-1415.8780	-1422.1697	-1441.0535	-1449.7415	-1457.2237	-1461.1979	-1465.2158	-1468.4940	-1474.5428	-1479.1451	-1481.8040	-1485.9817	-1491.7372	-1496.5386	-1500.3880	-1503.3292	-1508.8966	-1512.1617	-1517.6940	-1520.5039	-1525.6248	-1531.2928	-1528.7345	-1519.9087	-1518.3680	-1532.4417	-1546.5285	-1553.7809	-1558.8559	-1564.6880	-1569.1611	-1572.3387	-1577.9148	-1576.8359	-1563.3268	-1572.4197	-1588.8612	-1597.6017	-1604.1298	-1608.0799	-1605.4275	-1610.9751	-1617.8993	-1624.4383	-1628.6356	-1633.7631	-1637.4090	-1623.5914	-1614.8136	-1631.8242	-1649.6160	-1657.6650	-1664.2499	-1667.4012	-1672.0910	-1676.9143	-1680.5580	-1684.4752	-1687.0641	-1670.9071	-1665.6527	-1667.8170	-1677.8268	-1691.3228	-1706.0442	-1716.5355	-1722.3873	-1727.6898	-1732.5131	-1733.7693	-1738.2161	-1743.7375	-1747.4906	-1752.3270	-1755.1326	-1759.6254	-1764.2145	-1768.3856	-1772.4210	-1775.8765	-1780.5488	-1785.5581	-1790.1012	-1793.5261	-1797.3952	-1801.5401	-1804.0568
-1254.5984	-1260.5093	-1264.3128	-1268.4270	-1273.6136	-1277.5702	-1281.7216	-1287.4881	-1293.0817	-1297.5307	-1301.0125	-1305.9255	-1311.0595	-1315.7165	-1318.6467	-1323.5400	-1328.3195	-1333.3573	-1337.7144	-1341.4697	-1346.1004	-1350.5079	-1355.6156	-1359.7736	-1363.4742	-1368.7614	-1373.6153	-1376.7951	-1381.1829	-1386.9078	-1390.8382	-1395.6592	-1399.7625	-1403.6842	-1409.1005	-1409.1771	-1396.6944	-1412.0636	-1424.2640	-1430.3172	-1434.8034	-1439.2765	-1444.5243	-1448.6342	-1452.3939	-1456.2936	-1459.9833	-1465.7826	-1469.6648	-1473.2779	-1478.4710	-1482.5852	-1487.5726	-1490.7765	-1495.4531	-1498.3571	-1491.7919	-1480.2239	-1489.9099	-1509.2795	-1516.9390	-1506.4193	-1500.5237	-1516.1993	-1534.1924	-1541.1188	-1548.0298	-1551.6188	-1552.6364	-1546.3644	-1546.0471	-1563.3137	-1571.0585	-1559.9107	-1567.0909	-1582.1778	-1590.0517	-1594.7349	-1598.9060	-1602.7708	-1608.0361	-1611.5113	-1616.2317	-1620.2847	-1623.6855	-1629.8984	-1633.9776	-1636.7634	-1640.6041	-1645.0509	-1649.5263	-1653.8440	-1657.6103	-1661.2868	-1665.8365	-1670.3228	-1674.5902	-1679.0983	-1683.7946	-1686.9766	-1690.8260	-1695.1241	-1699.8685	-1704.1009	-1707.9963	-1711.8151	-1716.6318	-1721.1465	-1725.0090	-1728.5017	-1728.8038	-1732.5416	-1739.9581	-1741.3477	-1748.1121	-1753.9136	-1757.2925	-1762.2449	-1766.3766	-1771.1671	-1775.4257	-1779.2905	-1783.0830	-1787.9303	-1792.5326	-1795.7255	-1799.9228	-1805.2101
-1253.5480	-1258.3691	-1263.6475	-1267.0286	-1271.8847	-1278.0407	-1283.0106	-1286.6193	-1291.6133	-1295.4911	-1301.3648	-1301.7369	-1304.3608	-1311.7773	-1316.7844	-1321.4392	-1325.7919	-1331.6328	-1337.0032	-1340.1457	-1346.0545	-1349.0635	-1354.6396	-1359.5985	-1363.1679	-1367.1902	-1371.8187	-1376.6310	-1381.7628	-1385.2730	-1388.6979	-1394.5410	-1398.8740	-1403.6820	-1407.3322	-1411.8251	-1415.0289	-1419.2613	-1424.2399	-1427.4635	-1433.7770	-1437.8322	-1442.0536	-1446.4458	-1448.3300	-1454.1577	-1458.7556	-1464.0494	-1468.5291	-1472.8008	-1476.9873	-1481.1431	-1484.4979	-1488.0278	-1493.7527	-1497.8998	-1502.6486	-1507.6513	-1512.5950	-1515.3896	-1520.0203	-1524.1892	-1529.0212	-1532.7415	-1536.8601	-1541.1319	-1545.9880	-1548.8701	-1553.3498	-1555.1027	-1551.1833	-1550.7675	-1564.7602	-1559.5277	-1564.9397	-1568.9051	-1565.5021	-1564.6114	-1582.0180	-1592.7413	-1581.5125	-1591.5420	-1610.4171	-1618.4245	-1622.5781	-1627.2526	-1630.8459	-1636.3564	-1641.0812	-1643.8276	-1648.3554	-1648.0184	-1647.3335	-1657.9626	-1664.1514	-1670.1608	-1674.0190	-1678.0303	-1682.4772	-1686.1559	-1691.2331	-1694.4325	-1699.3236	-1703.9543	-1708.2458	-1711.6860	-1715.9140	-1721.0677	-1724.8580	-1729.4997	-1733.7233	-1736.8068	-1742.2691	-1746.4577	-1749.8060	-1754.1456	-1758.1723	-1763.5974	-1766.3985	-1771.3400	-1774.7123	-1776.9708	-1781.4636	-1786.2868	-1791.0970	-1796.5505	-1800.9164	-1804.1268
-1253.2744	-1257.5112	-1262.8619	-1267.4138	-1272.0642	-1277.3733	-1280.7500	-1286.0262	-1291.0333	-1295.3445	-1300.2115	-1304.7853	-1308.1993	-1311.2849	-1316.4868	-1322.0738	-1326.5382	-1332.2456	-1334.5718	-1339.5023	-1345.3804	-1349.4771	-1352.4249	-1357.8128	-1362.9184	-1367.3105	-1370.9105	-1375.1779	-1380.3710	-1384.6778	-1388.8664	-1393.1097	-1397.0511	-1402.4696	-1407.1550	-1410.9781	-1415.6832	-1418.8302	-1404.7258	-1398.5873	-1419.0337	-1434.1950	-1441.4102	-1445.5332	-1450.6169	-1455.2738	-1460.3444	-1463.6161	-1467.0059	-1472.2406	-1476.4380	-1480.5828	-1484.7343	-1487.9491	-1493.0174	-1493.4551	-1500.3005	-1505.9313	-1511.4023	-1515.1204	-1519.6942	-1523.9310	-1527.9642	-1533.4352	-1537.0133	-1540.2084	-1545.3096	-1550.0869	-1554.2339	-1558.4620	-1561.9087	-1567.4016	-1572.2796	-1575.5644	-1580.5671	-1585.0162	-1588.6840	-1593.0652	-1596.5185	-1601.1929	-1605.1430	-1609.1894	-1614.0849	-1617.4791	-1622.8801	-1627.7406	-1630.6599	-1635.9800	-1639.9607	-1644.0618	-1648.8347	-1651.4718	-1652.1305	-1658.3696	-1664.3331	-1668.2832	-1672.3055	-1678.0216	-1681.3283	-1685.8824	-1689.1387	-1694.1524	-1698.7809	-1701.9716	-1706.8627	-1710.4648	-1714.7782	-1719.2885	-1723.9192	-1727.4360	-1732.0076	-1735.3799	-1738.9383	-1743.6565	-1748.5892	-1752.1169	-1756.5178	-1761.0260	-1765.2168	-1769.5367	-1772.6640	-1775.5680	-1778.9688	-1785.7485	-1789.1318	-1793.6355	-1797.7038	-1802.2841
-1252.0489	-1257.0210	-1261.1746	-1265.6609	-1270.7927	-1275.2286	-1280.7784	-1284.3718	-1289.2213	-1294.6705	-1298.4849	-1302.7589	-1307.0328	-1311.8736	-1317.2068	-1321.3407	-1325.2908	-1330.0112	-1334.1911	-1339.4323	-1344.1593	-1348.9300	-1353.7227	-1354.2523	-1357.5196	-1363.3167	-1367.4856	-1374.2565	-1378.4452	-1383.8943	-1387.3870	-1392.3132	-1397.0664	-1400.3228	-1405.9076	-1410.3938	-1414.0551	-1418.7339	-1423.1939	-1427.6320	-1432.4093	-1434.5539	-1439.0139	-1444.1873	-1448.1484	-1452.8294	-1457.1909	-1461.4977	-1465.9730	-1470.3586	-1474.0110	-1478.3660	-1484.4126	-1488.1001	-1492.9014	-1495.9652	-1500.9526	-1505.7759	-1509.3758	-1513.7329	-1518.6766	-1523.0906	-1526.3973	-1531.1856	-1535.3545	-1540.9131	-1544.9376	-1548.3318	-1553.6759	-1557.3874	-1557.7551	-1547.2376	-1555.7483	-1571.4152	-1577.9454	-1580.0332	-1566.1455	-1559.9741	-1577.8338	-1595.1420	-1603.6330	-1609.7453	-1614.1133	-1618.0459	-1621.4664	-1626.0927	-1630.6184	-1634.3824	-1639.6565	-1642.8209	-1647.6355	-1652.4740	-1654.9666	-1660.3392	-1664.2696	-1668.4538	-1672.4915	-1676.6626	-1681.0635	-1685.2456	-1688.4757	-1692.9991	-1697.5160	-1701.8469	-1706.0289	-1709.7996	-1713.7912	-1718.9099	-1723.4006	-1726.9720	-1729.7491	-1734.1085	-1739.6036	-1743.1401	-1747.2411	-1752.7428	-1756.6294	-1760.8334	-1764.5165	-1768.0048	-1773.2001	-1777.4434	-1781.3913	-1784.7659	-1790.0706	-1793.8959	-1797.4806	-1801.3147
-1249.1230	-1256.1960	-1261.6473	-1267.1884	-1270.8671	-1274.5655	-1280.1241	-1284.6497	-1289.0178	-1294.1956	-1298.8854	-1303.1265	-1307.9520	-1312.3485	-1317.2965	-1320.2859	-1325.8269	-1328.9454	-1334.1779	-1339.6008	-1343.9514	-1348.1794	-1352.2695	-1356.5698	-1361.1501	-1364.9361	-1369.0809	-1364.4196	-1368.2975	-1379.9793	-1386.0981	-1392.4029	-1396.1057	-1400.0054	-1405.5946	-1409.1486	-1414.2980	-1418.1999	-1421.3644	-1427.0739	-1431.2822	-1433.6173	-1431.6652	-1432.4487	-1435.0682	-1445.3362	-1454.8624	-1460.1628	-1465.9380	-1470.8553	-1474.8995	-1478.6942	-1483.3884	-1488.6253	-1492.1464	-1496.0527	-1500.6222	-1504.4541	-1495.6785	-1489.9515	-1508.6668	-1515.4049	-1508.6230	-1523.6596	-1532.9844	-1539.1952	-1544.2570	-1547.9598	-1552.8706	-1557.3371	-1562.4821	-1566.9202	-1570.3538	-1574.0084	-1578.9608	-1583.4799	-1587.1936	-1591.3451	-1596.1508	-1599.9652	-1603.8453	-1608.5241	-1612.8922	-1616.8467	-1621.5911	-1625.4012	-1629.2309	-1633.9382	-1638.0721	-1642.3658	-1645.4580	-1650.4432	-1655.3715	-1659.2669	-1662.6020	-1667.2196	-1671.5417	-1675.7544	-1680.0152	-1682.8646	-1687.8323	-1692.9116	-1696.4677	-1689.2263	-1673.7170	-1681.8032	-1704.3373	-1714.3296	-1721.0261	-1725.6656	-1729.7754	-1733.4585	-1737.8900	-1742.1618	-1745.7224	-1750.2721	-1755.7366	-1759.3343	-1763.7002	-1766.5802	-1771.3925	-1775.5395	-1780.1440	-1784.3720	-1787.8428	-1793.1278	-1796.7934	-1800.8157
-1250.7381	-1255.1083	-1259.3889	-1264.2690	-1269.1010	-1274.0578	-1278.2027	-1282.3782	-1286.7003	-1292.5849	-1296.2658	-1300.2137	-1305.1092	-1309.8931	-1314.0533	-1318.6314	-1323.0039	-1328.7660	-1332.9218	-1336.5348	-1341.7652	-1346.7219	-1350.9434	-1353.9699	-1358.9114	-1361.5134	-1363.0825	-1368.6739	-1365.7020	-1376.2786	-1385.3824	-1390.4202	-1394.4666	-1399.2395	-1404.1109	-1408.6190	-1412.5516	-1417.4734	-1414.6262	-1405.1263	-1420.8326	-1432.6413	-1439.1299	-1443.7037	-1448.7961	-1452.3720	-1456.5913	-1461.6137	-1466.1568	-1468.8902	-1474.5297	-1478.9590	-1482.9989	-1487.0365	-1490.6933	-1493.2866	-1481.8499	-1490.8575	-1504.1236	-1512.3827	-1517.8297	-1518.3286	-1507.5397	-1500.4843	-1518.2586	-1533.4506	-1532.7503	-1520.0750	-1529.2619	-1546.4235	-1558.1621	-1563.9461	-1567.9991	-1574.0610	-1576.9737	-1581.5563	-1584.9549	-1589.7322	-1593.5182	-1598.0372	-1601.4555	-1606.3291	-1610.3799	-1610.4718	-1614.8552	-1622.6044	-1626.7033	-1631.5769	-1635.4372	-1640.7813	-1643.1361	-1646.3487	-1652.1436	-1656.9800	-1660.7441	-1664.4972	-1669.6684	-1674.5923	-1679.8555	-1683.6042	-1687.3793	-1691.1543	-1696.4787	-1699.9648	-1704.0156	-1709.0183	-1712.5810	-1717.2424	-1721.3106	-1724.8318	-1729.7491	-1734.9072	-1738.4109	-1742.2319	-1746.2301	-1751.4079	-1756.3646	-1758.9426	-1763.9935	-1768.0836	-1771.9265	-1776.2442	-1779.0410	-1784.8097	-1789.0880	-1792.0380	-1796.3601	-1800.4284
-1249.1690	-1255.4563	-1259.7171	-1263.5118	-1268.1381	-1272.5653	-1277.5724	-1282.5970	-1286.3873	-1291.4273	-1295.7975	-1300.9906	-1304.9363	-1309.3285	-1315.2438	-1318.1850	-1322.9689	-1327.4420	-1332.4819	-1336.6268	-1340.3514	-1345.2644	-1349.5822	-1354.9504	-1358.5766	-1361.8242	-1367.7504	-1372.4664	-1376.6091	-1380.5789	-1384.7960	-1389.8599	-1394.2783	-1398.3072	-1403.1349	-1408.0719	-1412.1117	-1415.5541	-1419.8916	-1424.6842	-1429.7985	-1433.6611	-1436.8189	-1441.9923	-1445.5004	-1450.7832	-1454.7224	-1459.9001	-1464.4739	-1467.7150	-1472.8949	-1476.6393	-1481.2153	-1485.9729	-1490.2272	-1494.6981	-1498.4053	-1502.8697	-1506.9532	-1510.9121	-1515.7529	-1520.3157	-1524.6728	-1528.7061	-1533.5950	-1537.9346	-1541.8803	-1537.5210	-1526.7321	-1532.4548	-1549.7586	-1561.4119	-1566.9245	-1571.7019	-1576.9978	-1580.1076	-1584.7514	-1589.6884	-1593.7895	-1598.9235	-1601.4687	-1606.5458	-1611.1721	-1614.5554	-1619.6500	-1623.1843	-1628.5175	-1632.4610	-1636.3279	-1640.4662	-1644.3769	-1649.6641	-1653.8221	-1657.8554	-1661.3327	-1656.0762	-1659.3479	-1670.9202	-1677.9975	-1683.0965	-1687.3990	-1691.2199	-1694.9774	-1699.7285	-1704.4204	-1707.5564	-1711.4628	-1716.0716	-1720.3499	-1723.9892	-1728.6571	-1731.3905	-1736.0999	-1740.7831	-1744.8142	-1748.3419	-1753.2133	-1757.8703	-1761.6300	-1765.1905	-1769.0684	-1773.5546	-1774.2396	-1773.8479	-1784.1225	-1790.7446	-1794.4277	-1798.9337
-1247.8581	-1253.3948	-1257.5747	-1262.8334	-1267.3963	-1271.1647	-1275.6553	-1280.5049	-1285.4179	-1289.9917	-1294.0140	-1299.5550	-1304.6518	-1309.5955	-1313.1867	-1316.2001	-1322.5793	-1326.6279	-1330.2760	-1336.1759	-1340.9117	-1345.2163	-1349.1270	-1353.0333	-1358.2483	-1362.7148	-1366.9275	-1370.7879	-1376.2217	-1380.4673	-1384.7215	-1388.2230	-1393.8297	-1398.0490	-1401.8765	-1405.9207	-1409.5994	-1415.9021	-1419.4823	-1424.3669	-1428.9122	-1432.4552	-1437.4689	-1441.7888	-1445.9140	-1450.4068	-1454.6458	-1459.5347	-1461.5874	-1467.2751	-1472.3785	-1476.8582	-1481.0008	-1483.5744	-1489.7654	-1494.0854	-1490.6671	-1477.3221	-1481.9506	-1503.4343	-1514.0897	-1519.2281	-1525.0952	-1529.0300	-1532.9472	-1537.0133	-1541.1757	-1546.0011	-1550.7128	-1552.8246	-1558.2628	-1563.1867	-1566.5066	-1571.0256	-1574.9254	-1579.4510	-1584.0598	-1588.0624	-1591.7631	-1596.5075	-1600.9850	-1604.3574	-1609.0231	-1613.4831	-1617.6892	-1622.3724	-1625.7338	-1630.2988	-1634.0257	-1638.9256	-1643.4600	-1646.7885	-1651.8088	-1655.4109	-1660.0285	-1663.1207	-1668.1431	-1673.4916	-1676.3715	-1680.8556	-1684.4555	-1689.4626	-1693.7454	-1697.5663	-1701.3895	-1706.0027	-1711.0251	-1714.9467	-1718.1374	-1723.2386	-1727.8321	-1731.0578	-1735.8942	-1740.4658	-1744.7201	-1749.1538	-1752.3292	-1756.4259	-1762.3346	-1761.9123	-1750.4012	-1763.6739	-1775.7015	-1781.6343	-1786.3919	-1791.0029	-1794.8961	-1798.9140
-1247.9106	-1253.7362	-1257.2092	-1261.6998	-1267.3569	-1272.4406	-1276.7649	-1279.8308	-1285.4354	-1289.6612	-1294.3225	-1298.4411	-1302.8902	-1308.1161	-1312.1887	-1316.7231	-1321.5989	-1326.4419	-1330.7618	-1335.2043	-1339.2025	-1343.7785	-1348.6609	-1353.0399	-1356.7602	-1361.0385	-1365.2884	-1370.7923	-1372.1622	-1359.3578	-1371.9937	-1385.0126	-1391.8361	-1396.4361	-1401.4345	-1405.6887	-1409.9189	-1414.4621	-1418.8980	-1422.8787	-1426.8529	-1431.1334	-1435.7466	-1441.1936	-1445.3691	-1449.1178	-1452.8907	-1457.3550	-1461.1541	-1466.3800	-1466.4807	-1459.1254	-1458.5105	-1474.8492	-1486.0561	-1492.2165	-1498.0639	-1502.0950	-1505.8722	-1510.7217	-1514.5908	-1518.6547	-1523.2854	-1527.5681	-1531.9362	-1537.0133	-1540.7577	-1544.3532	-1549.0058	-1553.0150	-1557.7507	-1561.8912	-1565.9047	-1571.7391	-1574.6518	-1578.3743	-1582.8584	-1587.3840	-1591.8418	-1596.5994	-1599.8996	-1604.2808	-1608.8174	-1611.8724	-1616.8379	-1621.7750	-1625.4843	-1629.1390	-1633.2860	-1637.6344	-1642.9282	-1645.9635	-1650.2222	-1654.6428	-1659.7943	-1663.4708	-1667.0161	-1670.3271	-1664.1186	-1669.3423	-1668.2963	-1680.3632	-1690.4452	-1697.7567	-1701.2254	-1705.0004	-1696.1964	-1693.9270	-1712.8064	-1720.7657	-1726.2346	-1731.5699	-1735.0845	-1739.1856	-1743.7594	-1747.0486	-1752.3686	-1755.9751	-1759.9121	-1764.6412	-1767.8429	-1772.6311	-1775.9313	-1780.4175	-1786.2212	-1788.5912	-1791.2130	-1793.2657
-1246.3569	-1251.9329	-1256.6380	-1261.8683	-1266.0373	-1270.4404	-1275.0141	-1279.5288	-1284.0195	-1288.7114	-1293.2808	-1298.3820	-1302.2227	-1306.5010	-1311.3418	-1316.4715	-1320.3253	-1325.1835	-1329.6917	-1333.7862	-1337.8413	-1342.7215	-1346.4571	-1351.5167	-1355.4318	-1360.0209	-1365.4679	-1368.5820	-1373.9480	-1377.8674	-1381.5527	-1386.9078	-1391.5056	-1395.1318	-1397.0751	-1396.4099	-1404.6055	-1412.9149	-1417.3092	-1422.3097	-1427.2512	-1431.1028	-1435.3636	-1439.6573	-1440.3992	-1447.5400	-1452.0153	-1456.3199	-1461.9354	-1466.3034	-1470.4045	-1474.3065	-1478.2609	-1484.0799	-1488.8441	-1491.5118	-1496.4773	-1500.7622	-1505.4323	-1509.6800	-1514.0284	-1518.4796	-1521.8739	-1526.1763	-1530.6034	-1534.7855	-1540.0464	-1544.0491	-1547.1413	-1552.3672	-1556.7572	-1561.1843	-1564.5414	-1566.2155	-1573.1615	-1577.9826	-1581.7007	-1586.2504	-1590.4872	-1594.5905	-1599.4006	-1601.8057	-1607.1301	-1612.0934	-1615.4548	-1620.3284	-1623.8605	-1629.0142	-1633.7150	-1636.3257	-1640.6391	-1646.1758	-1649.0951	-1654.2116	-1657.7547	-1662.2891	-1666.6681	-1670.2855	-1673.9927	-1672.8438	-1681.3983	-1687.8695	-1691.2506	-1696.5378	-1701.5864	-1704.6261	-1707.8759	-1710.1037	-1716.5333	-1721.6651	-1726.5650	-1729.7338	-1734.4564	-1739.4635	-1742.2581	-1746.9304	-1750.4975	-1756.1939	-1759.8245	-1756.5113	-1756.1611	-1768.4753	-1776.2464	-1780.2993	-1784.5317	-1788.9720	-1793.1606	-1796.2726
-1244.8447	-1251.2392	-1255.2024	-1261.5554	-1266.3480	-1270.5673	-1274.8785	-1279.7170	-1284.4003	-1289.1250	-1292.1910	-1296.8545	-1302.7304	-1306.7133	-1310.8713	-1316.2898	-1320.0999	-1324.6583	-1328.6106	-1333.3223	-1338.3841	-1342.7084	-1347.8358	-1350.6611	-1355.6025	-1360.8284	-1364.4240	-1369.2538	-1373.3046	-1377.4998	-1382.3778	-1385.8311	-1390.9257	-1395.5717	-1389.2669	-1379.7013	-1390.1532	-1408.3696	-1417.1101	-1421.6138	-1426.6362	-1430.7133	-1435.4796	-1429.1310	-1421.3600	-1431.8140	-1446.8506	-1455.3439	-1461.7122	-1465.7760	-1470.9144	-1474.3853	-1478.6461	-1482.6246	-1487.3494	-1492.1136	-1495.8186	-1499.9503	-1504.3447	-1509.3627	-1513.8949	-1517.0024	-1521.4121	-1525.5679	-1530.0673	-1534.3128	-1537.7464	-1543.2393	-1547.9773	-1551.4021	-1555.4091	-1560.1055	-1563.6945	-1568.3777	-1571.3386	-1577.1160	-1581.7182	-1585.7405	-1589.9182	-1593.1811	-1596.1858	-1589.1216	-1596.0086	-1607.8698	-1614.1286	-1617.8752	-1622.1864	-1626.7273	-1633.1372	-1636.0019	-1640.7441	-1644.8671	-1648.7997	-1653.6536	-1658.8949	-1661.7332	-1650.1937	-1642.7115	-1662.0221	-1675.3714	-1682.3919	-1687.8629	-1691.8896	-1695.8572	-1700.3062	-1704.3679	-1709.2984	-1713.3689	-1716.9688	-1721.4091	-1726.3483	-1729.1977	-1733.3447	-1737.4436	-1741.5075	-1746.0309	-1749.3158	-1754.0581	-1758.5268	-1762.3806	-1766.9500	-1771.3706	-1775.1763	-1779.6428	-1784.2516	-1787.5911	-1790.9657	-1795.7824
-1242.4155	-1235.2047	-1237.9424	-1254.9223	-1263.4812	-1269.0660	-1274.1847	-1277.7037	-1283.1310	-1288.0702	-1288.8318	-1283.1135	-1287.3984	-1302.2139	-1309.2059	-1314.8564	-1319.2289	-1324.7699	-1328.7353	-1333.0772	-1337.6881	-1341.4894	-1346.5578	-1350.7442	-1354.6593	-1358.5437	-1363.8900	-1367.9167	-1372.7203	-1376.6988	-1370.7595	-1365.4919	-1380.9422	-1392.1556	-1398.3685	-1404.3429	-1407.8137	-1412.4312	-1416.4163	-1420.5743	-1425.5967	-1430.1662	-1434.0593	-1437.9613	-1443.9160	-1445.6864	-1446.7062	-1453.7835	-1460.5632	-1464.4061	-1467.4567	-1473.0744	-1477.4096	-1482.4890	-1486.2815	-1480.8652	-1476.7881	-1493.3479	-1502.3707	-1507.3931	-1512.0085	-1517.4117	-1520.8540	-1524.4124	-1528.7958	-1533.6081	-1536.4640	-1541.0750	-1546.3316	-1550.1919	-1555.4988	-1558.8252	-1555.6301	-1544.2482	-1551.5312	-1557.3393	-1574.3498	-1584.2437	-1589.2223	-1593.8792	-1597.2144	-1597.2253	-1602.3922	-1609.5002	-1614.1133	-1618.5755	-1623.1821	-1627.3751	-1631.6272	-1635.7546	-1640.4728	-1646.0160	-1649.2111	-1652.9905	-1657.9713	-1661.8820	-1666.1473	-1669.6531	-1674.2860	-1678.1945	-1682.9127	-1686.7096	-1690.1279	-1695.6536	-1699.5753	-1703.1271	-1707.5586	-1712.1674	-1716.3254	-1719.7065	-1723.9280	-1728.1932	-1732.2768	-1735.6863	-1740.6693	-1745.4094	-1748.4798	-1753.7079	-1757.5573	-1762.0611	-1766.1469	-1770.3136	-1774.7801	-1777.6689	-1783.5929	-1788.0441	-1790.6702	-1795.5219
-1245.0963	-1248.7072	-1254.7188	-1258.9271	-1263.4681	-1268.2104	-1272.2633	-1278.0188	-1282.0608	-1285.7155	-1288.8821	-1295.2110	-1300.0584	-1303.9975	-1308.9543	-1313.7250	-1318.0756	-1322.0300	-1327.3238	-1331.2717	-1336.1781	-1340.1698	-1343.9558	-1348.8512	-1353.8255	-1357.8872	-1362.5442	-1365.1330	-1354.1603	-1363.2663	-1362.9381	-1360.4608	-1381.0538	-1391.8164	-1396.8957	-1400.7189	-1406.1461	-1411.3152	-1408.6212	-1410.5514	-1421.1871	-1428.4723	-1432.9980	-1437.5411	-1442.0755	-1445.4632	-1450.3215	-1454.4576	-1459.3377	-1463.6445	-1468.0148	-1473.1444	-1476.4599	-1480.9746	-1485.5790	-1488.0716	-1493.6542	-1497.7750	-1502.5348	-1507.8833	-1510.5138	-1516.1096	-1520.8803	-1524.6641	-1528.3866	-1532.3564	-1537.6195	-1541.0444	-1545.4190	-1550.4327	-1552.3585	-1558.6326	-1563.1714	-1565.2460	-1553.8159	-1545.4759	-1562.9132	-1579.9434	-1587.0842	-1592.8945	-1596.6235	-1600.3022	-1592.1635	-1588.7540	-1606.7340	-1616.4659	-1621.8910	-1625.0445	-1630.5527	-1635.7042	-1638.6039	-1643.1842	-1648.2942	-1651.6972	-1655.0586	-1659.1618	-1664.4250	-1668.5129	-1673.1261	-1676.9033	-1681.4355	-1685.4381	-1689.6596	-1693.9576	-1697.8683	-1702.5318	-1706.2893	-1707.8584	-1710.0578	-1716.1832	-1723.1270	-1727.2544	-1731.7515	-1735.3843	-1739.5467	-1744.2605	-1747.2455	-1752.3839	-1757.0890	-1759.8574	-1758.5115	-1760.6386	-1770.9679	-1776.9729	-1781.8487	-1786.3437	-1790.2741	-1794.6313
-1243.4725	-1248.4227	-1252.4450	-1256.0318	-1262.0106	-1266.5122	-1268.6262	-1274.8062	-1279.9096	-1286.3107	-1289.7816	-1293.5785	-1299.8548	-1303.7677	-1308.8492	-1312.4645	-1317.1280	-1322.1088	-1325.7766	-1330.3723	-1334.2633	-1339.1806	-1344.4088	-1348.2888	-1353.3659	-1357.4517	-1359.7692	-1364.8682	-1370.2102	-1375.0509	-1379.9180	-1384.7653	-1388.6935	-1392.4138	-1397.7054	-1401.7321	-1405.6297	-1409.8205	-1414.7663	-1419.5414	-1423.2858	-1426.7851	-1433.2628	-1435.9611	-1440.5721	-1445.2093	-1448.8793	-1453.8010	-1458.6155	-1462.0995	-1467.0037	-1471.3412	-1475.2366	-1479.5959	-1483.1499	-1487.7412	-1492.9605	-1496.6546	-1501.1452	-1505.4629	-1509.9098	-1513.8336	-1518.2630	-1523.5108	-1527.3580	-1531.7961	-1535.3851	-1539.7620	-1544.5808	-1547.9773	-1549.7324	-1544.5721	-1556.2582	-1564.3554	-1569.6185	-1573.6758	-1578.6523	-1583.1101	-1587.3731	-1591.2707	-1596.2296	-1599.6413	-1604.7119	-1608.1083	-1611.7783	-1617.4091	-1621.5408	-1625.5303	-1630.1544	-1633.6055	-1638.0436	-1642.9282	-1646.1123	-1638.4419	-1633.5924	-1652.0648	-1661.6982	-1667.2568	-1672.3142	-1677.2184	-1680.5667	-1684.4709	-1689.2876	-1693.1348	-1697.9208	-1700.6695	-1705.5387	-1709.6704	-1713.4148	-1718.5116	-1715.6514	-1706.5695	-1718.8005	-1730.4166	-1738.5509	-1743.2867	-1745.8187	-1745.6327	-1753.7298	-1760.2578	-1764.5778	-1768.9021	-1772.3773	-1777.4128	-1782.0719	-1785.1904	-1789.7533	-1792.7996
-1242.1814	-1247.2432	-1252.3444	-1257.4456	-1261.7414	-1260.6910	-1244.9037	-1256.4739	-1273.8171	-1282.8837	-1288.8931	-1293.5653	-1298.8569	-1303.2469	-1307.1357	-1312.8540	-1316.2986	-1319.9160	-1324.6868	-1327.9803	-1333.6483	-1338.0273	-1343.4459	-1348.1159	-1351.7093	-1355.5259	-1352.4227	-1357.0687	-1367.2755	-1373.9348	-1378.3686	-1380.9334	-1369.7287	-1365.9143	-1382.7082	-1397.4625	-1404.9556	-1408.9823	-1414.0594	-1418.7251	-1422.7759	-1427.5422	-1431.1772	-1435.5431	-1440.6333	-1444.8023	-1448.8793	-1452.6609	-1456.9808	-1463.2747	-1466.6361	-1470.1923	-1475.2322	-1479.7600	-1484.8065	-1487.6558	-1492.0414	-1496.7421	-1501.7339	-1505.0165	-1509.5575	-1514.1641	-1518.7685	-1522.7689	-1526.5483	-1530.8879	-1535.9322	-1540.0640	-1543.7821	-1547.8066	-1551.7939	-1556.9782	-1560.3462	-1565.4189	-1569.3603	-1573.8968	-1577.9739	-1582.3813	-1586.5459	-1591.8068	-1594.8597	-1598.9017	-1603.9985	-1608.0777	-1611.7367	-1612.7040	-1605.9418	-1600.7881	-1614.9493	-1628.4518	-1636.5840	-1642.3548	-1646.1692	-1649.3818	-1654.0388	-1659.1356	-1663.2192	-1666.6418	-1670.1761	-1675.5574	-1679.9802	-1683.8493	-1687.6441	-1692.4892	-1697.2096	-1700.5076	-1704.6327	-1708.9877	-1713.6555	-1716.8003	-1706.0070	-1714.0079	-1712.9728	-1716.3429	-1731.8785	-1741.7723	-1746.8450	-1750.9768	-1756.3515	-1758.9557	-1764.0416	-1768.5191	-1771.3465	-1776.2595	-1779.9492	-1784.4267	-1788.9217	-1792.9965
-1240.9909	-1245.7879	-1250.4120	-1255.9706	-1260.9032	-1264.9934	-1269.7795	-1274.3642	-1279.2816	-1283.3892	-1287.6872	-1292.7666	-1298.1260	-1301.4174	-1306.0480	-1310.6897	-1315.7821	-1320.4106	-1324.0084	-1326.8205	-1332.0136	-1337.1016	-1342.3998	-1346.2273	-1343.9733	-1330.4467	-1335.2502	-1356.9528	-1366.4636	-1372.9326	-1378.4605	-1382.7432	-1387.3345	-1391.5713	-1395.7555	-1399.9442	-1403.5353	-1408.6147	-1412.9083	-1417.1670	-1422.0428	-1425.7631	-1431.1706	-1434.2519	-1437.0312	-1443.0515	-1447.4787	-1452.2713	-1456.9173	-1460.5020	-1465.5331	-1469.9581	-1473.2670	-1478.2719	-1481.8784	-1486.9183	-1490.7196	-1495.2518	-1500.0991	-1504.0033	-1507.3559	-1512.4090	-1517.0221	-1522.4144	-1524.6247	-1516.0023	-1528.7236	-1536.2102	-1538.5386	-1525.4869	-1526.7606	-1536.6719	-1549.7761	-1562.0619	-1568.4521	-1573.3300	-1577.5602	-1581.9152	-1584.9133	-1590.0692	-1594.2754	-1597.6368	-1603.3945	-1606.8631	-1611.2443	-1614.9405	-1618.0962	-1623.5016	-1628.3884	-1632.4697	-1636.6146	-1640.4793	-1645.4361	-1649.8064	-1654.0278	-1657.1135	-1662.0637	-1665.9481	-1670.9027	-1674.6886	-1678.2776	-1683.0353	-1687.5434	-1691.7648	-1696.3408	-1699.8992	-1704.4533	-1704.0900	-1695.2641	-1698.7503	-1713.7146	-1722.7790	-1729.1079	-1732.8589	-1737.7259	-1742.1881	-1746.8866	-1750.1867	-1754.0340	-1759.4481	-1762.9058	-1767.7335	-1771.6792	-1775.8393	-1780.7830	-1783.2471	-1787.5320	-1791.3202
-1239.9557	-1246.2146	-1249.4338	-1254.7823	-1259.2597	-1264.5645	-1268.7290	-1273.4275	-1278.2005	-1281.9952	-1287.4093	-1291.0465	-1296.1170	-1300.4326	-1305.0742	-1309.6327	-1314.1124	-1318.2353	-1324.4811	-1326.7132	-1329.9959	-1336.1366	-1341.5025	-1346.0938	-1349.9739	-1344.6998	-1352.4512	-1362.1809	-1367.3193	-1372.2629	-1377.0862	-1381.8525	-1385.7020	-1390.7747	-1394.8430	-1398.8718	-1403.6054	-1407.5949	-1412.7092	-1417.5106	-1421.8349	-1424.8330	-1429.3214	-1433.5122	-1432.5712	-1436.9415	-1444.6119	-1450.5118	-1455.5430	-1460.1824	-1464.8416	-1468.3956	-1473.7112	-1477.4053	-1482.1213	-1485.8657	-1490.5379	-1495.4050	-1499.0137	-1502.9003	-1508.2050	-1512.3915	-1516.8296	-1520.1253	-1524.3511	-1529.4042	-1533.9364	-1537.3000	-1541.7031	-1546.3250	-1548.6622	-1552.2097	-1552.8421	-1561.6527	-1568.0450	-1572.4197	-1566.0098	-1560.2368	-1578.3700	-1587.1586	-1593.4503	-1596.9408	-1602.3572	-1606.3291	-1609.2178	-1614.5663	-1619.5428	-1623.0618	-1619.8535	-1615.5752	-1626.8762	-1637.5294	-1643.9567	-1649.1280	-1653.1743	-1657.1222	-1661.1205	-1665.1603	-1670.0076	-1674.0803	-1678.4265	-1681.4640	-1685.2981	-1691.9662	-1695.3035	-1698.5139	-1702.3611	-1706.4579	-1710.1169	-1715.4960	-1719.6584	-1724.7727	-1729.3509	-1732.9530	-1735.7739	-1740.3936	-1745.6283	-1749.0772	-1753.5810	-1757.5726	-1762.3412	-1766.7727	-1769.1647	-1774.2177	-1778.3998	-1782.8269	-1787.0484	-1791.1057
-1240.7129	-1245.8973	-1248.4052	-1254.8260	-1259.8047	-1264.2099	-1269.2280	-1269.1273	-1269.1601	-1278.4500	-1286.1488	-1290.7817	-1296.4518	-1300.5945	-1305.6673	-1310.0682	-1313.7710	-1319.6709	-1322.9098	-1327.2997	-1332.5476	-1335.3181	-1340.7541	-1345.0412	-1349.4290	-1353.9065	-1356.9615	-1363.0256	-1367.0829	-1362.4544	-1366.9844	-1377.9331	-1383.5704	-1389.0918	-1384.1044	-1377.1846	-1392.8821	-1404.5026	-1410.2122	-1415.6198	-1419.8259	-1424.8439	-1428.7918	-1432.3130	-1436.9984	-1440.7865	-1445.4479	-1448.4963	-1453.9170	-1459.3421	-1463.3272	-1468.0870	-1471.5206	-1475.9653	-1480.1605	-1484.3404	-1488.0847	-1492.8336	-1496.6611	-1502.2700	-1505.9816	-1510.8858	-1516.3394	-1519.9787	-1523.6311	-1527.5156	-1533.2230	-1537.0264	-1540.4097	-1545.1301	-1548.9577	-1553.4242	-1551.2577	-1550.6427	-1559.6940	-1569.1239	-1573.1440	-1571.1197	-1579.3044	-1587.4738	-1593.2621	-1595.7591	-1601.3242	-1604.8213	-1606.7603	-1598.1095	-1592.7566	-1611.8899	-1623.4010	-1629.4300	-1633.8375	-1637.5972	-1643.0923	-1647.1168	-1649.9136	-1654.9513	-1659.8731	-1663.6437	-1666.7644	-1671.1303	-1674.2247	-1677.5292	-1683.6699	-1687.6309	-1692.4848	-1697.1965	-1701.0218	-1704.9829	-1709.0839	-1713.6337	-1713.6818	-1709.3575	-1719.3651	-1729.3027	-1735.1370	-1739.4504	-1742.8862	-1747.7554	-1751.8127	-1748.0137	-1740.2645	-1755.8066	-1767.4490	-1771.7820	-1776.7475	-1780.6517	-1785.6609	-1789.2718
-1239.0979	-1241.7918	-1243.3368	-1247.6283	-1255.8830	-1261.7086	-1266.4005	-1271.0925	-1265.9913	-1259.5946	-1276.6182	-1287.6457	-1294.2569	-1298.7278	-1304.1879	-1308.0526	-1312.1909	-1317.2505	-1321.7324	-1325.6891	-1330.6196	-1335.0620	-1340.2398	-1342.9644	-1347.9080	-1352.5803	-1356.1605	-1361.4390	-1366.5249	-1367.8598	-1372.4599	-1378.6837	-1382.9686	-1388.0611	-1392.9631	-1396.9220	-1401.0099	-1405.2992	-1410.5054	-1413.7881	-1418.4122	-1421.9290	-1427.4394	-1431.7637	-1435.7160	-1440.9135	-1443.3732	-1449.5468	-1453.7047	-1457.1996	-1462.6444	-1466.5682	-1470.9298	-1475.3153	-1479.1297	-1484.1500	-1487.9666	-1491.8116	-1496.4007	-1500.8935	-1505.5395	-1509.8179	-1513.7811	-1518.4906	-1522.8564	-1527.1348	-1530.7194	-1534.7133	-1540.6417	-1544.3511	-1548.5265	-1553.1441	-1557.6719	-1562.1188	-1564.2853	-1552.0740	-1544.7931	-1560.7138	-1577.7419	-1586.5524	-1591.2838	-1596.5185	-1600.7465	-1604.2064	-1609.4148	-1613.2445	-1617.6214	-1621.6393	-1625.8060	-1630.7978	-1634.5903	-1638.5470	-1642.5211	-1647.2197	-1652.3165	-1655.2161	-1658.7417	-1664.1011	-1668.0971	-1673.2333	-1677.0937	-1681.4290	-1686.2347	-1689.4561	-1692.8328	-1697.6232	-1702.5997	-1706.5935	-1711.0294	-1714.5966	-1718.2578	-1721.3084	-1718.5729	-1723.0635	-1726.9524	-1728.9197	-1726.2127	-1737.0059	-1749.0050	-1754.6402	-1760.1878	-1764.0088	-1768.2849	-1773.0075	-1777.0014	-1781.3476	-1783.8511	-1788.7554
-1238.9753	-1244.6608	-1247.8253	-1247.8297	-1255.4738	-1261.1527	-1265.4792	-1270.4207	-1275.0951	-1280.4896	-1284.3215	-1289.9676	-1294.3269	-1297.7452	-1303.1768	-1308.0154	-1311.2346	-1315.3729	-1320.6732	-1325.4571	-1329.9849	-1333.9088	-1337.0732	-1341.9949	-1346.5512	-1351.4292	-1356.6004	-1359.9334	-1366.3498	-1369.6915	-1373.6919	-1379.4431	-1383.0912	-1387.4789	-1392.1446	-1396.5171	-1400.5350	-1405.1635	-1409.2471	-1413.7355	-1418.8630	-1422.5964	-1427.0783	-1431.5383	-1435.5475	-1433.8777	-1441.6947	-1447.9186	-1453.4618	-1457.4973	-1460.8412	-1465.7935	-1470.8466	-1475.0768	-1479.3683	-1482.3292	-1487.4216	-1491.4899	-1496.2016	-1499.6921	-1504.7057	-1508.7652	-1510.1133	-1515.7332	-1515.0963	-1502.7405	-1512.5731	-1528.2334	-1537.1731	-1542.6572	-1546.8831	-1551.6122	-1554.5797	-1559.7662	-1564.0183	-1568.4149	-1572.7107	-1577.0022	-1582.0684	-1585.6464	-1589.1785	-1593.3978	-1598.6215	-1602.7270	-1606.7800	-1611.0802	-1615.3038	-1619.7857	-1625.2261	-1627.7034	-1632.4566	-1636.7525	-1641.2519	-1644.3638	-1649.3840	-1653.9862	-1657.5052	-1660.2320	-1665.2763	-1669.5831	-1675.1132	-1678.8444	-1681.8929	-1680.1334	-1670.0973	-1681.7485	-1696.0563	-1702.8360	-1707.0597	-1712.3031	-1715.4697	-1721.3194	-1723.9061	-1729.4493	-1732.1061	-1735.9533	-1741.5250	-1746.1688	-1750.1561	-1753.3643	-1758.4261	-1762.9168	-1766.0681	-1768.8495	-1773.6203	-1778.8812	-1783.3368	-1787.4598
-1234.0361	-1228.4469	-1240.6276	-1249.2237	-1254.7254	-1259.8944	-1264.8862	-1268.4095	-1273.6092	-1277.9204	-1282.3847	-1287.1029	-1291.9722	-1296.4081	-1300.6908	-1305.6126	-1309.9697	-1314.4953	-1318.4235	-1323.8771	-1328.3764	-1333.0881	-1337.2154	-1335.9549	-1324.0193	-1339.6358	-1351.3898	-1358.5043	-1363.5202	-1368.8752	-1373.5431	-1377.2853	-1383.2137	-1386.3913	-1391.1949	-1396.3464	-1400.0207	-1405.4371	-1409.0786	-1413.8275	-1417.1495	-1422.6774	-1427.6123	-1431.7199	-1435.2914	-1432.9826	-1431.1947	-1445.1371	-1451.8643	-1446.2466	-1439.7011	-1451.7330	-1466.6295	-1473.6543	-1477.2937	-1482.8544	-1487.0124	-1491.0347	-1496.8187	-1500.9132	-1504.2527	-1509.2839	-1513.0720	-1516.3678	-1521.6419	-1525.0208	-1529.5508	-1534.1421	-1538.7903	-1541.9197	-1546.9968	-1552.1046	-1556.0241	-1559.9216	-1563.5828	-1567.9772	-1572.7217	-1576.5973	-1580.7706	-1584.8564	-1589.8832	-1593.1111	-1598.0679	-1602.4688	-1607.2505	-1612.3517	-1615.8969	-1619.9739	-1624.6505	-1629.0799	-1633.4348	-1637.6191	-1640.7879	-1637.1179	-1643.1842	-1652.3756	-1658.4966	-1663.3067	-1667.4340	-1671.6818	-1675.1198	-1679.6520	-1685.1602	-1688.5479	-1693.1851	-1697.6013	-1700.7155	-1706.6351	-1709.5698	-1714.4105	-1718.6648	-1723.1970	-1727.3091	-1731.6071	-1735.5375	-1738.7610	-1740.5205	-1745.4882	-1751.0949	-1755.6096	-1759.2358	-1762.6695	-1767.2586	-1772.0840	-1774.7254	-1778.8966	-1783.5119	-1786.8996
-1238.2422	-1242.4396	-1245.7813	-1248.9786	-1255.5810	-1260.7085	-1265.5755	-1269.5978	-1274.2219	-1279.7915	-1285.0196	-1288.5232	-1293.0773	-1297.5898	-1302.5335	-1307.9345	-1310.4533	-1315.3948	-1321.1021	-1323.6910	-1328.5690	-1333.0596	-1336.4933	-1342.8047	-1345.4461	-1351.3460	-1355.3837	-1360.1982	-1364.4065	-1368.0480	-1372.6481	-1377.1956	-1380.7955	-1384.8288	-1389.3807	-1394.7182	-1399.2504	-1402.5746	-1407.5467	-1408.5381	-1394.5016	-1408.5687	-1421.5154	-1429.2120	-1433.0811	-1438.2983	-1442.0689	-1447.8135	-1451.9803	-1453.9520	-1458.2960	-1463.8240	-1468.6319	-1466.9534	-1451.1662	-1450.6388	-1469.1287	-1485.1107	-1492.4944	-1497.8276	-1503.5371	-1507.5529	-1511.8028	-1515.8754	-1520.0487	-1524.5765	-1528.9774	-1532.5095	-1536.6894	-1541.5346	-1545.5525	-1549.9928	-1553.2119	-1554.1770	-1543.6157	-1539.7685	-1559.3089	-1572.1527	-1580.3483	-1584.6420	-1588.4410	-1593.3190	-1597.2341	-1601.5715	-1604.5850	-1609.4367	-1614.7917	-1618.6806	-1622.4293	-1626.4319	-1631.0714	-1634.9142	-1639.6915	-1642.9391	-1647.7361	-1652.2924	-1656.8159	-1660.8447	-1665.2391	-1670.2834	-1673.4019	-1677.6496	-1680.9825	-1686.3748	-1689.2897	-1681.8076	-1685.1055	-1699.0698	-1707.2129	-1711.0667	-1715.4479	-1719.6518	-1723.9914	-1727.9656	-1730.8390	-1722.2276	-1705.8998	-1708.6397	-1728.7928	-1747.3768	-1756.6688	-1761.3695	-1764.8710	-1770.1735	-1773.5743	-1777.5835	-1781.9603	-1785.6369
-1233.9661	-1239.9667	-1245.0044	-1249.0683	-1254.2001	-1258.5398	-1262.5664	-1267.7114	-1272.2546	-1276.3162	-1280.5596	-1286.3064	-1289.8341	-1294.8062	-1299.2355	-1303.5357	-1308.5516	-1312.3003	-1316.4605	-1322.0935	-1327.1750	-1330.9566	-1334.7535	-1339.3710	-1344.6714	-1349.6019	-1352.9151	-1355.7776	-1343.4765	-1335.8083	-1354.4645	-1370.7179	-1379.2483	-1385.6429	-1389.3610	-1393.3483	-1397.8717	-1403.9840	-1407.1791	-1411.5756	-1415.4644	-1419.8762	-1424.4894	-1429.8992	-1432.7857	-1437.7293	-1442.4060	-1445.9490	-1450.5403	-1455.6349	-1460.9046	-1464.6271	-1468.0432	-1473.3742	-1476.7225	-1467.3123	-1458.5827	-1472.8424	-1490.4176	-1497.4402	-1502.3663	-1506.9029	-1512.0566	-1516.8733	-1519.9130	-1524.0535	-1528.0824	-1532.2666	-1537.1534	-1540.8452	-1546.3338	-1549.9425	-1553.7569	-1557.9411	-1562.3267	-1565.4868	-1571.3823	-1575.8336	-1578.6260	-1583.9242	-1588.5395	-1591.6186	-1596.3390	-1601.1864	-1605.4231	-1609.2157	-1613.8792	-1617.6717	-1622.7335	-1626.2153	-1629.8984	-1634.8092	-1639.4683	-1644.1997	-1646.5719	-1649.7495	-1655.7085	-1659.7790	-1663.9610	-1667.1167	-1673.4544	-1678.0894	-1679.2033	-1669.4102	-1680.3982	-1689.4320	-1693.1895	-1700.0589	-1706.4447	-1711.0754	-1715.9621	-1718.6057	-1723.7441	-1728.6177	-1732.5766	-1736.0343	-1737.4305	-1742.9803	-1748.4382	-1753.6860	-1756.2115	-1760.7809	-1765.9039	-1768.4403	-1773.2023	-1777.8374	-1782.5468	-1787.0944
-1236.0232	-1240.1855	-1245.6763	-1249.5891	-1255.0427	-1259.6165	-1264.0568	-1268.4489	-1273.0796	-1277.4630	-1282.2315	-1286.5777	-1290.9327	-1295.4014	-1301.3451	-1305.1486	-1307.5055	-1313.6878	-1317.9136	-1318.1937	-1305.9058	-1307.1992	-1326.8861	-1335.9549	-1343.8135	-1348.9979	-1352.9326	-1357.6924	-1361.4565	-1365.6911	-1370.3655	-1374.6811	-1378.4342	-1382.4806	-1387.9407	-1389.4529	-1395.0859	-1400.3818	-1404.5420	-1410.0940	-1414.2848	-1417.3552	-1422.6205	-1427.5970	-1430.5601	-1436.4600	-1440.9901	-1444.9861	-1448.8815	-1452.5449	-1458.1013	-1462.3271	-1466.6689	-1470.8794	-1475.2759	-1480.2699	-1481.0577	-1479.4033	-1488.5202	-1496.1250	-1500.6681	-1504.5307	-1508.4436	-1508.6471	-1498.7423	-1514.0065	-1524.3818	-1531.4985	-1536.2211	-1540.8255	-1545.1980	-1548.4521	-1551.4306	-1550.6099	-1551.5706	-1554.1967	-1558.3657	-1562.8585	-1566.6948	-1570.7280	-1573.3366	-1579.1644	-1584.3203	-1589.0516	-1592.6340	-1597.6980	-1600.9610	-1600.2278	-1602.8539	-1598.9411	-1608.6510	-1628.4825	-1636.2776	-1641.8777	-1647.1015	-1651.4039	-1655.2096	-1659.3610	-1663.7509	-1668.0227	-1671.6336	-1676.2599	-1678.9823	-1680.0393	-1687.4602	-1691.6335	-1697.0696	-1700.9868	-1705.7116	-1708.6988	-1713.3623	-1717.1351	-1722.6631	-1726.4381	-1730.7755	-1735.5572	-1738.3430	-1743.0569	-1746.7816	-1751.2481	-1755.5440	-1759.1199	-1763.3260	-1767.7488	-1773.2526	-1775.8809	-1779.8244	-1783.5820
-1232.9047	-1237.6492	-1243.3565	-1247.9610	-1252.5698	-1257.0516	-1261.5795	-1266.4925	-1270.1143	-1274.4495	-1280.2904	-1285.0984	-1288.8493	-1293.5172	-1298.3251	-1302.3846	-1306.4682	-1312.3113	-1316.4058	-1319.8854	-1308.6632	-1306.6324	-1326.9014	-1337.0119	-1343.6516	-1348.1772	-1352.1120	-1357.7581	-1361.5353	-1365.2359	-1370.3086	-1374.7227	-1378.6071	-1383.6864	-1388.1136	-1390.5887	-1396.4668	-1401.2638	-1405.4305	-1410.1137	-1415.4578	-1419.1387	-1422.7474	-1427.8333	-1431.6740	-1437.2588	-1440.0994	-1444.2333	-1450.4571	-1453.2561	-1458.1122	-1462.0864	-1466.7805	-1472.2056	-1474.6741	-1479.6571	-1482.1848	-1479.8869	-1487.6055	-1494.6609	-1495.0264	-1482.4736	-1484.5154	-1504.4453	-1515.3349	-1521.7513	-1527.0210	-1530.9755	-1534.6389	-1539.9830	-1543.7799	-1547.8416	-1551.2949	-1554.2843	-1559.8976	-1565.1563	-1568.9642	-1573.7633	-1577.5296	-1582.0771	-1586.1892	-1590.4653	-1594.1594	-1585.2569	-1577.3064	-1585.4779	-1601.7160	-1613.9601	-1619.5669	-1624.1341	-1628.5809	-1633.9250	-1637.8204	-1641.8602	-1646.1736	-1649.9114	-1654.7500	-1657.7065	-1662.1950	-1666.3377	-1671.3513	-1675.3780	-1679.2668	-1684.4971	-1688.2787	-1692.9225	-1696.3955	-1700.5885	-1705.5781	-1709.6901	-1713.1456	-1717.1855	-1722.8206	-1726.5847	-1729.7667	-1734.9707	-1738.8486	-1743.4289	-1747.2871	-1751.1365	-1756.4062	-1759.9536	-1764.2298	-1767.6941	-1771.2502	-1775.8678	-1780.4394	-1784.5011
-1233.9223	-1237.9205	-1236.6162	-1223.8315	-1234.8567	-1252.6245	-1260.1701	-1266.1051	-1271.1122	-1266.8798	-1271.2085	-1281.4131	-1288.1271	-1293.7251	-1298.5702	-1302.3781	-1307.3108	-1312.1537	-1316.3752	-1320.4019	-1323.8661	-1330.2782	-1333.0203	-1337.3905	-1342.2926	-1346.8379	-1351.4248	-1354.9132	-1359.8152	-1364.8310	-1368.8796	-1373.2805	-1377.4801	-1380.1587	-1384.8966	-1389.0612	-1394.7357	-1399.6772	-1404.5179	-1408.1288	-1411.9213	-1417.8673	-1421.7626	-1425.5552	-1430.5557	-1435.0069	-1438.4209	-1442.7036	-1446.8441	-1451.7986	-1457.2084	-1461.5305	-1464.2420	-1468.6166	-1473.9892	-1478.8846	-1482.5065	-1485.6643	-1491.8225	-1495.7595	-1499.9175	-1503.2942	-1507.5375	-1513.1552	-1517.6174	-1521.2852	-1525.8940	-1530.1286	-1535.1969	-1539.2783	-1542.7185	-1547.2332	-1552.5620	-1556.7550	-1560.1295	-1564.8937	-1568.9882	-1572.6713	-1577.2342	-1581.1230	-1586.3183	-1589.8963	-1592.9514	-1596.6104	-1602.1843	-1604.8892	-1609.8284	-1614.6057	-1619.9061	-1624.4689	-1627.6530	-1632.2531	-1636.4264	-1638.9650	-1630.1807	-1642.8209	-1650.5789	-1656.0587	-1659.6039	-1653.6492	-1640.7638	-1657.2951	-1674.1197	-1681.5406	-1686.9044	-1691.4628	-1695.8222	-1699.6388	-1703.3022	-1708.7688	-1712.0624	-1715.9906	-1719.7503	-1724.1205	-1728.6352	-1732.7692	-1736.5354	-1740.9363	-1744.5494	-1750.2590	-1752.8194	-1756.9905	-1762.3784	-1766.6283	-1770.0379	-1774.1849	-1778.3429	-1782.7657
-1226.3022	-1236.1063	-1231.4756	-1221.0588	-1235.8043	-1252.7339	-1260.6866	-1265.9081	-1270.3397	-1275.3665	-1278.6163	-1283.5599	-1288.5889	-1292.7622	-1297.9553	-1301.4743	-1306.2428	-1311.3134	-1314.0861	-1310.4752	-1320.9818	-1327.9869	-1333.4448	-1337.7056	-1341.9534	-1347.0020	-1351.2804	-1356.2765	-1360.2113	-1364.6560	-1368.9518	-1373.8035	-1377.5282	-1378.9901	-1366.3936	-1361.9358	-1378.2176	-1394.6066	-1403.4391	-1407.9800	-1412.1774	-1417.5609	-1421.8436	-1426.4590	-1430.6279	-1434.4073	-1437.4580	-1436.3747	-1444.8132	-1452.4508	-1455.6152	-1460.3269	-1462.7035	-1467.9557	-1471.1355	-1475.8012	-1482.2920	-1486.1830	-1490.2928	-1495.3765	-1499.4798	-1501.6857	-1488.7084	-1492.4747	-1510.5729	-1519.3003	-1524.2811	-1528.7148	-1533.1486	-1537.7399	-1542.4362	-1545.5328	-1550.2073	-1555.0196	-1559.7137	-1563.7404	-1566.6619	-1571.6734	-1575.8708	-1580.8669	-1584.4669	-1588.7387	-1593.6035	-1597.1706	-1600.6852	-1605.2218	-1610.0407	-1614.3803	-1618.1400	-1622.4096	-1627.4714	-1632.0868	-1635.2841	-1640.1183	-1643.5913	-1648.8632	-1653.2444	-1656.3716	-1655.9427	-1649.5459	-1660.6478	-1670.9399	-1677.6342	-1681.8951	-1682.1336	-1673.2705	-1677.5139	-1695.0453	-1702.8667	-1707.5630	-1711.3730	-1714.9555	-1720.3521	-1724.3919	-1727.4907	-1732.6466	-1736.3078	-1740.7240	-1743.9979	-1748.6111	-1753.7276	-1757.7412	-1761.4199	-1765.7092	-1770.1079	-1773.7188	-1777.4391	-1782.4243
-1231.1452	-1236.1457	-1241.1747	-1246.0089	-1250.8147	-1254.0688	-1259.8244	-1264.6345	-1268.9960	-1272.7426	-1277.8328	-1282.5598	-1286.7440	-1291.3331	-1295.6093	-1301.1898	-1305.5360	-1309.6852	-1313.6375	-1318.1193	-1322.7653	-1327.5295	-1330.7924	-1336.1563	-1341.0955	-1344.9252	-1348.8644	-1353.5191	-1358.9858	-1362.7871	-1366.3761	-1371.4379	-1375.5083	-1380.4804	-1385.3671	-1388.3105	-1394.3484	-1397.9987	-1401.7321	-1406.8026	-1410.9694	-1415.8999	-1419.6858	-1423.6447	-1427.9121	-1433.0986	-1437.7862	-1441.0907	-1445.6711	-1451.0743	-1454.5232	-1457.7533	-1462.3205	-1466.2334	-1468.2730	-1474.4947	-1479.3924	-1483.9727	-1489.7042	-1493.7111	-1497.9807	-1502.5370	-1506.7541	-1511.7656	-1514.9278	-1519.0771	-1518.3024	-1509.5246	-1519.1515	-1533.3455	-1540.7883	-1546.1346	-1550.0869	-1553.6015	-1558.2387	-1563.0511	-1561.5783	-1553.0566	-1568.1194	-1578.5319	-1584.6157	-1588.1500	-1592.3889	-1596.6345	-1601.1185	-1604.9089	-1609.0712	-1612.8834	-1617.8446	-1622.0244	-1625.6682	-1629.1083	-1634.6604	-1637.8795	-1642.0922	-1645.9898	-1650.8765	-1655.4525	-1659.0196	-1663.6897	-1667.6682	-1672.4105	-1676.3409	-1679.4791	-1684.7072	-1688.6442	-1692.8962	-1696.1920	-1701.0196	-1705.0857	-1709.7164	-1714.0998	-1717.7720	-1722.8578	-1727.5345	-1731.0644	-1733.8371	-1739.5292	-1743.7966	-1747.3068	-1751.7099	-1756.2837	-1760.6189	-1765.1052	-1769.2391	-1769.0224	-1776.0451	-1781.0412
-1230.6331	-1235.0034	-1239.1132	-1244.4354	-1250.0246	-1254.1389	-1257.6097	-1263.6103	-1268.2126	-1272.1736	-1276.9728	-1280.5530	-1285.7680	-1291.1406	-1294.2678	-1299.3843	-1303.5357	-1308.6632	-1313.7053	-1317.3928	-1321.7434	-1326.3390	-1331.0244	-1335.3400	-1338.4979	-1344.5576	-1349.5100	-1352.6219	-1358.0885	-1360.9860	-1366.3454	-1371.1337	-1374.3310	-1379.3118	-1384.3429	-1389.1881	-1393.2279	-1397.1167	-1402.0100	-1406.2840	-1411.1313	-1414.5299	-1420.0294	-1423.6688	-1426.7894	-1424.2159	-1432.5318	-1440.4823	-1443.7825	-1448.7108	-1452.8294	-1458.7600	-1462.0645	-1465.9227	-1470.1638	-1475.0418	-1479.7994	-1483.2855	-1479.0203	-1467.5093	-1483.2921	-1497.9085	-1504.3228	-1509.4568	-1514.0546	-1518.8013	-1522.8608	-1526.3273	-1531.8946	-1535.3370	-1529.6799	-1531.7480	-1545.7057	-1552.9931	-1557.0789	-1562.3092	-1559.8560	-1543.8368	-1553.3039	-1573.2184	-1581.5519	-1587.4803	-1592.3955	-1595.8423	-1600.3898	-1605.0730	-1606.1869	-1598.3655	-1607.1739	-1619.4837	-1625.6550	-1630.4783	-1633.6559	-1638.4376	-1643.0792	-1646.9636	-1651.3251	-1655.6757	-1660.4596	-1664.4666	-1668.1168	-1673.0364	-1677.1222	-1681.9038	-1685.1449	-1689.4320	-1693.7782	-1698.2360	-1702.1204	-1705.8363	-1710.5414	-1714.7454	-1718.9581	-1723.3612	-1726.6919	-1731.8216	-1736.6033	-1739.3388	-1743.0985	-1748.0706	-1752.5262	-1756.0057	-1760.7174	-1764.7682	-1768.9677	-1762.6629	-1756.9336	-1771.5500
-1230.0510	-1235.0384	-1240.4941	-1244.9278	-1249.1121	-1254.1301	-1258.8483	-1263.1376	-1264.5885	-1257.8088	-1270.7817	-1279.7871	-1285.3763	-1289.6152	-1295.1935	-1298.9379	-1304.3936	-1308.0089	-1312.7030	-1318.6117	-1322.1876	-1326.2471	-1330.7640	-1334.8804	-1340.0319	-1343.4240	-1348.6981	-1352.8495	-1357.3686	-1361.2574	-1365.1724	-1370.5559	-1375.0838	-1379.3118	-1383.6711	-1388.4681	-1392.6939	-1395.8628	-1400.5963	-1405.3495	-1410.2122	-1415.5366	-1418.4297	-1422.9028	-1425.8068	-1426.9164	-1431.3917	-1439.3334	-1444.8570	-1449.2229	-1453.4202	-1457.3681	-1462.0317	-1464.0625	-1468.0192	-1474.8098	-1479.2764	-1483.5263	-1488.7434	-1491.5184	-1496.7552	-1502.4232	-1505.6993	-1510.6210	-1514.4792	-1520.0509	-1522.7908	-1527.3493	-1531.6670	-1529.3517	-1513.6607	-1513.3456	-1529.5771	-1547.0319	-1557.2211	-1562.4602	-1566.6707	-1570.4763	-1574.2623	-1578.4859	-1583.0444	-1586.4868	-1591.2904	-1595.6387	-1599.9587	-1603.3835	-1608.2703	-1612.2948	-1616.1486	-1620.4641	-1624.7753	-1628.8260	-1633.4283	-1636.7525	-1640.1927	-1644.6811	-1650.2506	-1653.6842	-1649.0623	-1638.8468	-1650.6686	-1665.7336	-1673.6710	-1678.7613	-1683.8209	-1687.5106	-1692.0253	-1694.7805	-1698.5183	-1704.5364	-1707.5849	-1711.6444	-1717.3540	-1721.5579	-1725.3067	-1728.8344	-1733.0690	-1737.8857	-1741.0545	-1744.7507	-1750.0270	-1754.7890	-1758.8179	-1762.3018	-1766.0331	-1771.6354	-1774.8283	-1779.1351
-1229.4426	-1234.2899	-1238.9403	-1243.0983	-1248.3330	-1252.0117	-1251.2830	-1258.5967	-1265.0393	-1268.8078	-1273.7624	-1278.9270	-1284.0457	-1289.0747	-1293.4559	-1297.5920	-1302.0761	-1306.4857	-1309.9522	-1310.4139	-1297.6620	-1301.1701	-1321.0956	-1330.8515	-1337.4430	-1342.1853	-1346.7985	-1351.2935	-1355.5237	-1360.4717	-1364.4568	-1367.8729	-1373.7204	-1377.8587	-1381.9248	-1386.4723	-1389.9256	-1395.2391	-1400.1914	-1402.6644	-1405.7763	-1412.1227	-1417.6966	-1422.0384	-1425.1044	-1430.2953	-1435.0879	-1439.2809	-1442.8524	-1447.3518	-1452.1225	-1447.3934	-1439.2656	-1455.2651	-1467.4786	-1474.2452	-1477.3571	-1482.4714	-1487.0584	-1491.3805	-1495.1446	-1498.5322	-1498.5607	-1486.0911	-1497.6941	-1512.9758	-1519.9284	-1525.0624	-1530.1329	-1534.8139	-1537.9653	-1543.1299	-1547.6950	-1551.1526	-1555.0152	-1560.6963	-1564.8653	-1567.7912	-1572.4109	-1576.3938	-1581.5869	-1585.6902	-1589.1610	-1593.2928	-1597.7681	-1603.0224	-1607.1060	-1610.5572	-1615.1988	-1618.7571	-1623.1646	-1627.6574	-1631.1501	-1637.0435	-1640.9608	-1645.2413	-1649.2899	-1653.5486	-1658.1245	-1661.7201	-1666.3333	-1670.5766	-1675.1395	-1678.6759	-1683.3219	-1686.7359	-1692.2594	-1695.4873	-1699.5206	-1704.1907	-1708.0992	-1712.7145	-1716.3232	-1721.7395	-1726.4381	-1730.2021	-1733.6029	-1738.4634	-1743.6281	-1746.6678	-1749.8869	-1753.7911	-1758.7500	-1763.2144	-1764.5362	-1758.6275	-1769.8234	-1779.2467
-1226.2650	-1231.3049	-1235.4323	-1240.3475	-1245.3918	-1248.4052	-1235.8547	-1228.9064	-1240.3256	-1261.3519	-1270.0552	-1267.2103	-1258.3319	-1274.1147	-1287.1970	-1294.9156	-1298.8744	-1304.4636	-1309.3569	-1313.7294	-1312.6943	-1309.5057	-1324.7568	-1333.3485	-1338.6642	-1342.9403	-1348.2757	-1348.7287	-1339.7168	-1354.0334	-1363.0322	-1370.4925	-1374.4601	-1377.9900	-1383.6208	-1388.1595	-1392.5736	-1396.4383	-1400.3490	-1405.0169	-1409.3959	-1413.3941	-1417.9789	-1422.5680	-1428.0346	-1431.0021	-1434.6787	-1440.4233	-1445.4522	-1448.8487	-1452.0547	-1453.8645	-1460.6114	-1466.0737	-1469.3322	-1473.2845	-1478.1231	-1482.7012	-1486.6907	-1490.2031	-1496.0921	-1500.0707	-1502.9900	-1504.6948	-1511.0062	-1517.1469	-1521.3180	-1524.5765	-1529.1569	-1533.9517	-1538.3898	-1542.1386	-1546.2287	-1550.9776	-1555.2340	-1558.9237	-1563.5413	-1568.8000	-1572.8486	-1576.5120	-1580.1645	-1584.8520	-1589.3470	-1593.7720	-1597.6214	-1601.7860	-1606.7077	-1610.2201	-1613.9229	-1618.4551	-1623.5848	-1627.2569	-1631.3865	-1635.4919	-1639.7353	-1643.6701	-1649.0273	-1652.2027	-1656.7130	-1661.5100	-1665.0574	-1668.8828	-1672.7891	-1677.9362	-1681.7178	-1685.6045	-1690.8348	-1694.3318	-1699.2470	-1703.8339	-1705.8342	-1710.2044	-1715.5792	-1718.8421	-1722.7747	-1727.4294	-1732.1455	-1735.6710	-1740.2251	-1744.1402	-1748.6242	-1753.1127	-1753.6751	-1742.8424	-1752.4758	-1759.8420	-1756.3121	-1749.1888
-1227.3045	-1232.3138	-1236.8854	-1241.6802	-1246.4947	-1250.7621	-1255.8152	-1260.7282	-1264.8840	-1268.3045	-1268.1732	-1256.5308	-1261.7874	-1279.5639	-1289.9544	-1296.8939	-1300.6098	-1306.1487	-1310.5781	-1313.8694	-1308.4991	-1304.3586	-1315.6311	-1329.4838	-1333.9197	-1339.5374	-1344.2840	-1349.2561	-1354.6352	-1359.6248	-1363.8484	-1367.5447	-1372.5299	-1376.7470	-1379.9902	-1385.0257	-1390.1247	-1394.3703	-1398.2044	-1402.0976	-1406.9821	-1411.7835	-1416.9131	-1420.3030	-1424.3384	-1421.3490	-1428.7481	-1436.6723	-1441.7254	-1446.1635	-1450.3258	-1455.7400	-1460.3094	-1463.8940	-1468.8639	-1471.0873	-1476.0441	-1480.6441	-1484.7583	-1490.7765	-1492.8205	-1498.4775	-1502.8762	-1506.0647	-1510.7195	-1515.1795	-1521.1648	-1523.7997	-1528.4172	-1532.5227	-1536.2014	-1541.5433	-1545.6378	-1549.2509	-1553.2929	-1559.3855	-1562.8060	-1565.1519	-1558.8865	-1564.3641	-1576.8578	-1583.4383	-1587.3337	-1592.2117	-1597.4726	-1600.8866	-1604.8082	-1609.9225	-1614.6298	-1617.6257	-1621.5780	-1626.5632	-1630.9663	-1632.6339	-1636.2141	-1643.3812	-1647.1212	-1649.6488	-1654.8003	-1659.6127	-1665.5411	-1668.1978	-1664.6526	-1649.2374	-1652.2421	-1674.7258	-1683.9062	-1673.0211	-1669.4540	-1689.5086	-1704.0593	-1711.1892	-1715.2268	-1708.1845	-1701.6390	-1720.7329	-1730.0993	-1736.2838	-1741.3412	-1744.8689	-1748.9831	-1753.7582	-1756.2815	-1759.0958	-1764.9914	-1769.5411	-1774.3162	-1779.2511
-1226.9303	-1232.0993	-1236.5309	-1241.9866	-1247.1140	-1251.3793	-1256.0384	-1260.2336	-1265.1400	-1269.8298	-1273.9221	-1278.2771	-1283.1835	-1287.9411	-1291.7096	-1295.6925	-1299.9095	-1305.5425	-1309.9347	-1313.5127	-1318.3185	-1323.8399	-1327.5230	-1332.1143	-1336.2066	-1340.9554	-1343.6231	-1348.7178	-1353.6351	-1357.8019	-1362.7696	-1367.6913	-1370.7726	-1376.8673	-1381.3536	-1385.1702	-1389.1224	-1393.1710	-1398.2831	-1402.3164	-1406.2949	-1410.2385	-1415.3265	-1418.8783	-1409.0786	-1397.7951	-1411.2933	-1431.5908	-1439.5676	-1442.8393	-1439.5369	-1448.6276	-1458.4536	-1463.2025	-1467.2488	-1472.6630	-1476.5474	-1480.8673	-1484.3382	-1489.2008	-1494.0197	-1496.1096	-1499.1997	-1505.9969	-1510.5401	-1515.1598	-1518.9830	-1523.5524	-1527.8789	-1533.1004	-1535.9454	-1540.5060	-1545.6838	-1549.6383	-1551.7676	-1554.5162	-1561.1340	-1566.1980	-1570.8134	-1574.0719	-1578.4378	-1584.2152	-1588.1172	-1591.9403	-1595.3674	-1601.3571	-1604.5193	-1608.5241	-1612.8944	-1617.3544	-1618.4004	-1619.7835	-1627.4517	-1634.3365	-1638.9343	-1641.9850	-1646.7688	-1650.6314	-1655.1614	-1660.1685	-1663.0988	-1667.0773	-1671.9684	-1672.3536	-1677.2885	-1682.4203	-1688.9615	-1692.2857	-1696.4393	-1701.0218	-1705.2520	-1709.3772	-1714.6031	-1717.2839	-1721.4748	-1725.8538	-1729.7579	-1734.4674	-1738.1198	-1743.4486	-1747.1033	-1750.8039	-1755.0253	-1759.6910	-1763.4617	-1767.3767	-1771.5544	-1776.4040
-1224.7375	-1230.8673	-1234.2987	-1239.5640	-1243.9715	-1249.0158	-1253.4079	-1256.8941	-1262.5905	-1266.7791	-1271.5543	-1276.4497	-1280.9929	-1284.7198	-1290.3571	-1294.7646	-1298.3777	-1302.8552	-1308.1380	-1312.6724	-1316.6465	-1320.4938	-1325.7175	-1330.2585	-1334.6681	-1339.1040	-1343.1504	-1348.6521	-1353.1187	-1357.5327	-1361.2880	-1366.7218	-1370.8295	-1374.8430	-1379.3205	-1383.7061	-1388.2733	-1392.4248	-1396.2698	-1401.6446	-1405.7325	-1409.5338	-1413.8428	-1417.5215	-1422.5899	-1422.4695	-1425.6449	-1435.6635	-1440.2547	-1445.1349	-1448.1024	-1452.8885	-1458.2960	-1461.9901	-1466.6733	-1471.2755	-1475.6042	-1480.6397	-1483.4562	-1487.7981	-1491.7569	-1495.5144	-1499.3573	-1504.2702	-1508.6471	-1514.2232	-1518.0638	-1522.3181	-1527.0691	-1531.1921	-1535.9454	-1539.1973	-1544.0009	-1549.1590	-1553.0303	-1557.0351	-1560.9983	-1566.1564	-1569.8702	-1573.8181	-1578.1139	-1581.6985	-1586.6619	-1591.2728	-1594.5008	-1597.7024	-1603.1734	-1608.0821	-1611.5748	-1615.7262	-1621.0572	-1625.1867	-1629.1893	-1632.8199	-1638.1946	-1641.3481	-1644.8781	-1650.2813	-1654.5618	-1658.6410	-1663.6065	-1667.2305	-1671.0033	-1675.3430	-1679.3084	-1683.8647	-1687.4427	-1692.6052	-1697.1286	-1700.7920	-1704.6612	-1709.0205	-1713.3207	-1717.6560	-1721.5098	-1725.8166	-1730.1890	-1733.8962	-1737.9951	-1741.8817	-1746.6940	-1750.7601	-1752.4868	-1757.8156	-1761.6015	-1767.7247	-1772.8959	-1776.7650
-1225.4422	-1229.8956	-1234.5110	-1240.9208	-1246.2452	-1251.4996	-1253.6705	-1259.8484	-1263.1967	-1265.5908	-1271.4208	-1276.2440	-1280.7237	-1285.3675	-1289.8932	-1295.4189	-1300.6120	-1304.2535	-1308.8164	-1311.8539	-1316.1826	-1320.9227	-1324.2381	-1328.4530	-1333.4667	-1337.9289	-1342.3385	-1346.7898	-1352.1579	-1356.7777	-1360.5571	-1363.7281	-1348.4004	-1346.2536	-1364.1898	-1378.4167	-1385.6254	-1391.2780	-1395.5126	-1399.2220	-1404.5114	-1409.1267	-1412.9258	-1416.4820	-1420.7341	-1425.9907	-1431.1159	-1435.0616	-1438.1451	-1442.9377	-1448.7305	-1452.6127	-1456.9261	-1461.0863	-1466.4413	-1470.1704	-1474.5384	-1478.7161	-1483.2834	-1488.6012	-1491.4155	-1495.2343	-1499.3704	-1505.2660	-1508.4895	-1512.5753	-1518.0901	-1521.8607	-1526.4564	-1530.6691	-1534.3303	-1539.9392	-1543.6420	-1548.7126	-1551.7216	-1556.3304	-1559.9107	-1561.0093	-1566.5810	-1561.7183	-1568.5221	-1579.2388	-1584.8892	-1578.6632	-1570.1831	-1573.0937	-1573.5773	-1583.8060	-1604.3399	-1613.8223	-1618.8556	-1624.1450	-1628.3512	-1632.8352	-1636.0434	-1639.8753	-1643.9589	-1649.1739	-1651.2442	-1655.4503	-1660.6565	-1665.6767	-1669.2395	-1673.1458	-1676.5510	-1681.5187	-1686.3047	-1690.2811	-1694.8330	-1699.0741	-1703.8296	-1707.9460	-1711.7057	-1715.3056	-1720.2733	-1724.8099	-1728.1407	-1732.5284	-1737.6537	-1740.9298	-1741.9605	-1746.3111	-1752.9901	-1758.5159	-1762.1005	-1766.5933	-1771.7120	-1774.7977
-1222.8949	-1228.0748	-1230.8585	-1237.0211	-1241.9100	-1246.8099	-1251.4602	-1253.7165	-1258.7192	-1264.2581	-1269.1951	-1272.8914	-1278.5834	-1283.4330	-1286.6521	-1291.8255	-1295.8172	-1301.7828	-1305.7614	-1310.3395	-1314.4953	-1318.9378	-1324.1747	-1328.3808	-1332.8627	-1337.4977	-1341.8702	-1346.1748	-1350.4313	-1356.5873	-1360.0165	-1364.7151	-1369.1400	-1372.8341	-1379.0601	-1382.9358	-1386.5576	-1391.0876	-1396.3201	-1399.7078	-1404.0824	-1408.8335	-1413.2103	-1418.4538	-1422.2200	-1426.9295	-1430.7548	-1435.3636	-1439.7076	-1443.2069	-1448.3716	-1452.8688	-1457.6264	-1461.2745	-1464.9269	-1470.6671	-1471.1530	-1463.9159	-1478.1056	-1485.6490	-1491.7022	-1495.5472	-1488.7828	-1482.8500	-1497.5606	-1509.2533	-1515.8842	-1520.9022	-1526.0756	-1530.0585	-1532.7678	-1537.8580	-1542.0445	-1546.2790	-1550.0628	-1553.6540	-1558.4729	-1555.6498	-1547.9357	-1562.3989	-1573.4373	-1579.8537	-1584.9155	-1587.6510	-1590.4828	-1596.0458	-1600.2278	-1604.8060	-1609.9750	-1614.3387	-1618.2910	-1622.8385	-1626.2481	-1631.4259	-1635.9931	-1640.1927	-1643.9327	-1648.5502	-1652.9030	-1655.5903	-1661.1292	-1665.1953	-1670.4300	-1674.3363	-1679.1705	-1681.6719	-1686.6790	-1691.2987	-1695.5442	-1699.1704	-1699.7175	-1687.2283	-1692.6227	-1708.2108	-1719.2097	-1724.9368	-1729.8980	-1732.9202	-1737.1744	-1742.6630	-1746.1885	-1749.7425	-1753.3599	-1758.2335	-1762.9168	-1767.3549	-1770.7994	-1775.2507
-1223.6783	-1221.8969	-1212.3773	-1229.4973	-1240.1483	-1246.8252	-1252.6004	-1253.7734	-1254.0907	-1263.9101	-1270.7117	-1275.1104	-1280.1635	-1284.2536	-1289.3504	-1293.4712	-1298.0669	-1302.6516	-1306.4660	-1311.8408	-1315.4845	-1319.7869	-1324.4679	-1329.3722	-1334.1560	-1336.6268	-1340.8613	-1346.1354	-1350.8405	-1354.7950	-1359.4454	-1364.2424	-1368.6936	-1372.5233	-1376.9899	-1380.4388	-1377.2875	-1364.1636	-1374.0683	-1393.1754	-1401.1084	-1407.4066	-1411.2364	-1415.5694	-1420.5853	-1417.8191	-1407.1572	-1421.6270	-1434.2804	-1440.7646	-1446.1919	-1450.2908	-1454.8734	-1459.8257	-1463.0121	-1467.2576	-1472.1793	-1476.3329	-1481.0555	-1483.6379	-1489.4853	-1494.2035	-1497.1382	-1501.6595	-1504.9552	-1510.9515	-1515.3502	-1519.7598	-1523.8325	-1528.0277	-1533.0676	-1536.5669	-1540.4294	-1545.0382	-1549.5026	-1553.4001	-1557.5888	-1561.7993	-1564.7449	-1570.8243	-1574.7197	-1578.6763	-1585.1387	-1588.3732	-1586.8085	-1595.5862	-1600.2716	-1605.9899	-1610.6162	-1613.6166	-1618.5230	-1622.8801	-1626.9396	-1631.2136	-1635.1024	-1639.3436	-1644.8518	-1647.9637	-1652.8701	-1656.9384	-1660.8097	-1664.9502	-1667.3837	-1672.3842	-1677.0281	-1680.5426	-1683.2497	-1687.8104	-1693.2770	-1697.6254	-1701.5164	-1705.0551	-1710.4364	-1713.9575	-1717.0388	-1721.9628	-1726.3943	-1730.5764	-1734.8941	-1738.4831	-1742.8687	-1748.3791	-1752.2898	-1755.6534	-1759.6910	-1764.4683	-1768.9371	-1772.0227
-1223.0262	-1227.2126	-1231.0270	-1236.6184	-1241.3651	-1245.7047	-1250.5433	-1254.3905	-1260.1482	-1263.5622	-1268.1425	-1272.7163	-1276.7145	-1282.0783	-1286.5580	-1290.6044	-1295.0272	-1299.8176	-1303.9515	-1309.4357	-1313.2786	-1318.0296	-1321.8090	-1326.3412	-1331.0091	-1335.2327	-1339.6884	-1343.5684	-1347.8402	-1352.8889	-1357.0884	-1361.7541	-1364.9733	-1370.6282	-1375.1341	-1379.3074	-1384.3780	-1386.1768	-1392.3416	-1396.8344	-1401.7168	-1406.9580	-1411.2451	-1415.5541	-1420.0075	-1423.7213	-1428.5248	-1432.7726	-1436.8408	-1441.3205	-1445.8724	-1450.1245	-1454.4007	-1458.8497	-1464.1457	-1468.3430	-1472.2581	-1476.4292	-1480.8586	-1486.5507	-1489.9208	-1493.6827	-1497.7925	-1500.8651	-1505.9991	-1510.0564	-1513.8993	-1519.2346	-1523.4342	-1526.3076	-1531.7852	-1537.3963	-1541.3157	-1544.4736	-1549.0014	-1553.2645	-1557.1708	-1561.9678	-1564.8368	-1570.1546	-1574.5293	-1576.0437	-1566.7210	-1562.2326	-1570.5748	-1586.8698	-1597.2472	-1603.6943	-1608.3687	-1612.9557	-1616.6497	-1620.3175	-1625.4909	-1629.9837	-1633.6033	-1636.6190	-1642.5146	-1647.6530	-1650.9837	-1654.9404	-1654.7609	-1643.8626	-1638.4879	-1655.9777	-1672.2354	-1680.3435	-1685.7292	-1689.3313	-1693.3142	-1698.1222	-1703.2628	-1706.4907	-1710.5655	-1714.4040	-1718.3125	-1722.9607	-1726.8057	-1730.6989	-1735.4565	-1740.4002	-1743.7069	-1748.0596	-1752.1476	-1756.7564	-1760.9997	-1763.4267	-1769.2194	-1773.6597
-1222.4834	-1226.4904	-1231.0358	-1235.9116	-1240.7895	-1245.9936	-1250.1953	-1253.6946	-1259.3714	-1264.0961	-1268.5605	-1272.3115	-1276.8896	-1279.9118	-1278.1436	-1287.9980	-1293.5675	-1299.4719	-1299.9161	-1286.4377	-1286.7397	-1307.2429	-1319.0866	-1325.8313	-1331.0704	-1335.9702	-1339.7343	-1344.3322	-1349.1467	-1352.4140	-1357.6924	-1362.3713	-1365.3825	-1370.7551	-1374.8781	-1379.7232	-1383.5048	-1387.4702	-1392.4357	-1396.2326	-1392.0484	-1395.6264	-1406.6429	-1413.4510	-1418.8477	-1422.9641	-1427.2753	-1421.6095	-1412.8777	-1431.3873	-1442.4169	-1448.5904	-1453.7988	-1457.8277	-1461.5196	-1466.4238	-1471.8007	-1474.8448	-1479.7206	-1484.4126	-1488.2970	-1492.9561	-1496.6349	-1500.7622	-1505.4301	-1509.4021	-1513.4244	-1517.4226	-1522.2087	-1527.5309	-1530.7698	-1534.6454	-1539.8298	-1544.7712	-1548.0320	-1552.3213	-1555.8271	-1560.9874	-1565.8216	-1568.4564	-1572.7632	-1577.9892	-1581.5760	-1586.6772	-1590.6492	-1594.9012	-1599.9127	-1603.3244	-1607.9136	-1611.7849	-1616.6957	-1620.1030	-1623.3003	-1628.0842	-1632.4391	-1637.6278	-1641.0046	-1645.4755	-1649.9946	-1653.1043	-1656.2688	-1662.2956	-1663.8998	-1655.7282	-1668.3794	-1677.2841	-1683.3569	-1687.6090	-1691.3162	-1696.9886	-1699.6584	-1704.7356	-1708.9592	-1711.6882	-1717.3058	-1720.7679	-1725.5255	-1729.8104	-1732.7057	-1737.3626	-1741.2296	-1746.0309	-1749.5062	-1754.1587	-1758.3999	-1762.2843	-1766.3504	-1770.5740
-1220.3979	-1224.1948	-1230.2107	-1234.7823	-1239.2948	-1243.5885	-1249.9590	-1253.0053	-1257.0144	-1251.8257	-1262.2382	-1270.7817	-1275.8260	-1274.1191	-1276.1871	-1268.0769	-1283.3279	-1295.6049	-1301.4874	-1307.7353	-1312.4535	-1316.0929	-1319.9620	-1324.9516	-1330.0878	-1333.2960	-1337.4540	-1343.0235	-1347.0743	-1351.1097	-1355.5872	-1359.8218	-1364.6560	-1369.7506	-1374.2325	-1378.6137	-1383.0890	-1387.1135	-1390.1816	-1395.0596	-1400.3578	-1404.2356	-1407.9384	-1412.3875	-1417.3793	-1421.9093	-1425.6755	-1427.5948	-1428.4439	-1428.0084	-1431.6608	-1443.6906	-1450.8248	-1456.7510	-1460.7208	-1464.6359	-1468.6144	-1474.0701	-1477.9042	-1482.9682	-1486.8351	-1491.3214	-1496.9391	-1500.0488	-1503.9639	-1507.9161	-1513.0983	-1517.1206	-1521.8585	-1525.2900	-1530.4152	-1535.0153	-1537.9237	-1543.1978	-1548.3493	-1551.7917	-1556.0963	-1560.2718	-1563.5478	-1568.1873	-1573.2885	-1577.5165	-1581.5475	-1586.2811	-1590.4872	-1594.5905	-1598.1926	-1603.2216	-1607.4759	-1610.3821	-1614.6079	-1619.8623	-1624.2960	-1628.0163	-1632.9206	-1637.1508	-1641.6852	-1644.7686	-1649.0404	-1653.1940	-1654.2861	-1660.6784	-1665.0421	-1669.4846	-1674.7149	-1678.3564	-1682.1796	-1686.5148	-1691.0076	-1695.2554	-1694.2990	-1684.9370	-1697.7502	-1708.7426	-1715.7455	-1719.3082	-1724.9762	-1729.1014	-1732.6269	-1736.1371	-1740.8225	-1746.6393	-1749.9198	-1752.6553	-1757.5530	-1762.1727	-1766.3679	-1763.2822
-1220.5817	-1224.3939	-1229.0399	-1234.6554	-1239.5750	-1243.1596	-1247.8581	-1252.9330	-1255.4213	-1249.7358	-1259.1788	-1268.7290	-1275.2111	-1275.4606	-1282.7064	-1288.1206	-1294.8171	-1298.6096	-1302.9865	-1307.4924	-1311.0726	-1314.9965	-1319.7213	-1325.1310	-1329.4488	-1334.9242	-1339.0603	-1342.8440	-1347.2581	-1351.8341	-1355.8826	-1360.6643	-1364.5794	-1369.8403	-1374.0924	-1378.1082	-1382.4434	-1387.4593	-1391.5844	-1396.4361	-1400.4147	-1405.1788	-1410.0699	-1413.5058	-1417.5412	-1421.6620	-1426.7347	-1431.0218	-1433.3437	-1418.5566	-1412.7201	-1430.8227	-1446.8900	-1455.5036	-1460.8959	-1465.9205	-1469.6867	-1474.0876	-1478.6461	-1482.9879	-1487.4348	-1490.4657	-1494.5230	-1500.0444	-1504.1871	-1508.3932	-1512.1770	-1516.5888	-1521.5609	-1524.7691	-1529.4830	-1533.7526	-1538.2235	-1543.0293	-1546.3075	-1551.0651	-1555.1159	-1559.3942	-1563.0620	-1566.0339	-1560.4906	-1571.6537	-1579.3701	-1583.2348	-1589.0450	-1593.7655	-1597.7724	-1601.6153	-1605.9549	-1610.5112	-1614.4525	-1616.8817	-1622.5628	-1626.8302	-1630.9138	-1635.5401	-1639.3742	-1644.4010	-1647.5370	-1652.3296	-1656.2994	-1659.6061	-1665.4710	-1668.3050	-1672.3536	-1676.4613	-1681.2889	-1685.0924	-1688.8017	-1681.8513	-1675.3758	-1692.4257	-1703.4707	-1710.0578	-1715.5266	-1719.8444	-1723.5012	-1727.8715	-1732.2571	-1736.5858	-1741.1727	-1743.5646	-1748.4645	-1753.1258	-1757.4873	-1761.5271	-1765.1074	-1768.8758
-1207.6635	-1221.1354	-1228.1099	-1232.9200	-1238.2641	-1243.1421	-1247.6699	-1251.8279	-1256.1522	-1262.0544	-1266.1467	-1269.7619	-1274.7253	-1279.9687	-1284.1595	-1289.1010	-1292.5915	-1296.8458	-1301.9929	-1306.5667	-1310.2717	-1314.6638	-1320.0823	-1324.5970	-1328.8054	-1332.5607	-1337.7538	-1338.8196	-1343.3824	-1350.1052	-1354.7031	-1359.6095	-1356.2962	-1354.5630	-1367.8751	-1376.0707	-1382.0364	-1384.8113	-1389.1553	-1393.9742	-1399.0316	-1403.3646	-1405.9404	-1412.5582	-1416.1844	-1420.3095	-1424.1940	-1428.6189	-1434.0812	-1437.7337	-1441.3687	-1446.6471	-1450.9233	-1455.2607	-1460.0052	-1463.5110	-1467.7916	-1472.4157	-1477.2937	-1480.5785	-1485.7344	-1489.9383	-1494.5121	-1498.4797	-1502.9266	-1507.6032	-1511.2360	-1515.8426	-1519.8146	-1524.3074	-1528.6995	-1532.5489	-1537.0855	-1542.4515	-1546.5373	-1550.2160	-1554.2317	-1559.7991	-1563.3027	-1567.7518	-1571.9426	-1576.1597	-1580.7947	-1584.3728	-1588.9159	-1592.6647	-1596.9387	-1601.5847	-1604.9614	-1596.0480	-1600.0353	-1614.4372	-1621.5999	-1627.8084	-1628.9245	-1623.3331	-1614.8880	-1617.4572	-1635.8508	-1648.4671	-1655.7479	-1659.9847	-1665.1384	-1669.1673	-1665.3551	-1672.7234	-1679.9890	-1686.1909	-1689.1584	-1694.2662	-1698.1813	-1700.2668	-1705.2980	-1709.8346	-1714.8439	-1718.7808	-1723.4246	-1727.4535	-1731.1213	-1736.0977	-1739.6189	-1743.7725	-1747.5628	-1750.5719	-1756.1786	-1760.5642	-1764.0482	-1768.6044
-1218.0760	-1222.6257	-1228.7773	-1233.0819	-1237.1918	-1240.8661	-1246.1927	-1251.0751	-1254.6881	-1259.7828	-1264.6651	-1269.3724	-1273.9812	-1277.0713	-1282.7764	-1287.5888	-1291.6001	-1295.0753	-1298.6228	-1294.2240	-1281.5575	-1300.9622	-1314.5675	-1321.6843	-1327.9453	-1331.5212	-1334.9395	-1340.5484	-1345.6080	-1349.6631	-1352.6810	-1358.7691	-1362.7477	-1363.4392	-1369.3545	-1375.5915	-1380.0099	-1384.9448	-1389.1990	-1393.3702	-1398.0709	-1402.4871	-1407.2950	-1411.1992	-1413.5605	-1409.8927	-1415.0180	-1417.0969	-1419.5742	-1415.2828	-1425.1766	-1442.0120	-1448.7699	-1455.3920	-1460.1321	-1462.8742	-1467.1066	-1471.3302	-1477.6701	-1481.3050	-1485.1238	-1489.4569	-1493.5339	-1498.5344	-1502.1234	-1506.1216	-1511.7502	-1514.6171	-1503.4824	-1491.1419	-1507.9008	-1527.0363	-1535.1904	-1540.1756	-1542.8739	-1547.7562	-1552.5970	-1556.5602	-1561.7271	-1566.7714	-1570.4829	-1575.0195	-1578.0176	-1583.0335	-1587.0186	-1591.0124	-1595.1638	-1596.0326	-1597.2428	-1606.3926	-1611.6711	-1616.4134	-1621.1600	-1621.2826	-1610.6009	-1618.1466	-1632.9796	-1635.4701	-1637.5950	-1647.6267	-1654.3167	-1658.7307	-1662.8559	-1666.8935	-1669.1257	-1667.9505	-1677.1178	-1683.0287	-1687.2567	-1692.4235	-1696.1920	-1700.4047	-1704.2585	-1710.0841	-1714.0451	-1716.3188	-1721.7811	-1726.1142	-1730.7383	-1734.9554	-1737.2335	-1741.4178	-1746.9676	-1750.4822	-1755.8110	-1759.3321	-1763.9978	-1769.0421
-1217.0715	-1221.7963	-1226.4182	-1230.2239	-1236.0341	-1240.7458	-1244.5755	-1248.7663	-1255.2768	-1259.2554	-1263.2624	-1268.5211	-1273.2415	-1277.4280	-1280.7565	-1285.8052	-1290.4862	-1295.3511	-1300.3188	-1302.5750	-1307.2714	-1312.2938	-1307.2364	-1295.3533	-1300.4676	-1320.6995	-1332.9809	-1338.6335	-1344.4000	-1348.5383	-1353.1887	-1357.6596	-1361.6841	-1365.7414	-1371.0286	-1375.1297	-1380.0909	-1383.0934	-1386.5139	-1392.3066	-1396.7228	-1401.1697	-1403.4675	-1408.6234	-1411.9192	-1409.1136	-1418.5873	-1425.6580	-1415.1427	-1416.6768	-1433.6939	-1444.4084	-1448.8049	-1453.3612	-1457.5914	-1462.0163	-1466.7674	-1470.0982	-1474.2627	-1478.7840	-1478.2128	-1474.1205	-1470.3783	-1488.0016	-1499.0925	-1505.7080	-1509.2686	-1513.7789	-1518.0354	-1522.7098	-1526.7059	-1530.7238	-1535.9235	-1538.8581	-1543.7492	-1548.7607	-1552.3169	-1556.6871	-1561.0749	-1564.2569	-1569.0889	-1573.9253	-1577.8163	-1581.3571	-1587.3731	-1591.3035	-1589.8723	-1577.3173	-1587.0908	-1604.1363	-1611.3537	-1616.6234	-1620.4947	-1625.8629	-1629.3031	-1633.5071	-1637.2230	-1641.1337	-1647.4166	-1649.9836	-1652.0998	-1658.0742	-1661.0614	-1655.4350	-1656.1396	-1670.9421	-1678.3520	-1685.5629	-1688.4144	-1692.2813	-1697.7392	-1701.0393	-1705.5300	-1708.1582	-1713.2157	-1717.6647	-1720.9430	-1725.0244	-1729.5981	-1734.2617	-1738.2293	-1742.8687	-1745.9631	-1750.6945	-1754.9575	-1757.9119	-1763.4617	-1767.3023
-1216.6579	-1221.7109	-1226.1884	-1230.4624	-1234.7298	-1239.8595	-1244.6105	-1248.6306	-1245.9870	-1251.1582	-1261.2337	-1265.9344	-1271.4908	-1275.6729	-1280.8703	-1285.8818	-1289.7050	-1293.7732	-1298.8153	-1303.5401	-1307.7703	-1311.4512	-1316.0819	-1320.4522	-1325.2470	-1330.0046	-1330.2475	-1336.5458	-1342.3298	-1347.6170	-1351.4423	-1355.4143	-1360.5877	-1354.9328	-1351.0572	-1367.8007	-1376.8214	-1381.0822	-1386.2600	-1390.6697	-1390.4399	-1377.1321	-1373.4556	-1394.4206	-1409.8730	-1417.6528	-1423.2420	-1427.2446	-1431.8622	-1436.5344	-1439.5085	-1444.9883	-1448.6867	-1453.0154	-1457.3463	-1461.0009	-1465.9489	-1470.3520	-1473.7353	-1478.6133	-1483.3403	-1487.6208	-1491.8729	-1496.1490	-1501.0226	-1504.3884	-1509.7369	-1513.7483	-1516.9630	-1523.2088	-1525.7780	-1530.1833	-1534.2231	-1537.9193	-1543.3400	-1547.3536	-1551.0367	-1555.6104	-1559.9326	-1560.3068	-1546.3272	-1557.6719	-1572.7370	-1581.0311	-1585.8412	-1589.1194	-1594.8509	-1598.6150	-1602.5213	-1606.9266	-1611.8089	-1615.1463	-1619.9433	-1622.8232	-1627.1256	-1631.9314	-1635.7305	-1640.6019	-1644.4623	-1648.1563	-1653.5135	-1656.7305	-1660.8666	-1665.2237	-1669.5896	-1674.0693	-1677.8684	-1681.7288	-1686.7621	-1690.7232	-1694.9315	-1698.0500	-1703.6567	-1708.0641	-1710.6902	-1716.0037	-1720.6782	-1723.5144	-1729.3290	-1732.5766	-1736.6623	-1742.3632	-1743.9695	-1747.1886	-1752.7034	-1757.2991	-1762.2777	-1766.4795
-1215.4805	-1218.8616	-1224.4968	-1229.7643	-1234.2659	-1238.1744	-1242.6409	-1247.6218	-1252.2568	-1256.4936	-1261.5860	-1266.5756	-1270.9546	-1274.3707	-1279.5048	-1284.5272	-1288.5736	-1292.8716	-1297.7518	-1302.2687	-1307.2429	-1311.8123	-1314.9483	-1319.6709	-1324.1375	-1326.3762	-1317.2462	-1318.6008	-1336.1563	-1346.0917	-1350.6260	-1355.1933	-1360.5943	-1364.6210	-1368.6980	-1372.7093	-1377.2919	-1381.6534	-1386.2272	-1390.5011	-1395.1143	-1398.7165	-1402.7278	-1407.9756	-1412.3240	-1417.3442	-1421.6685	-1425.8878	-1429.6453	-1435.3089	-1439.1693	-1442.7780	-1445.9512	-1450.0063	-1455.6240	-1459.5040	-1463.3688	-1466.1043	-1473.2123	-1478.0793	-1481.0555	-1486.4631	-1490.8618	-1494.3764	-1499.0356	-1502.5064	-1506.8504	-1512.3149	-1515.2845	-1519.4841	-1523.6180	-1529.0934	-1533.7482	-1536.9849	-1541.4602	-1546.6489	-1549.5376	-1552.2140	-1557.3480	-1562.8366	-1559.6152	-1553.4439	-1568.4105	-1578.7442	-1584.2021	-1589.3273	-1593.0630	-1597.1575	-1602.8211	-1606.1738	-1610.4149	-1615.0237	-1618.2451	-1624.6505	-1627.2066	-1629.4322	-1635.5642	-1639.2910	-1643.9130	-1649.2002	-1651.9335	-1658.1005	-1661.5231	-1664.3725	-1668.7537	-1673.1064	-1677.4395	-1681.8645	-1685.6679	-1690.2264	-1695.5333	-1698.4789	-1702.2736	-1707.4973	-1711.6269	-1716.1635	-1719.6934	-1723.9761	-1728.6528	-1732.6269	-1736.1809	-1740.1354	-1745.7837	-1748.7074	-1751.9025	-1755.9357	-1760.7699	-1764.8447
-1216.0692	-1219.6998	-1223.9781	-1228.1602	-1233.5152	-1238.7762	-1242.1792	-1247.0944	-1250.9000	-1256.7015	-1261.0761	-1265.0919	-1270.1230	-1274.4824	-1278.7935	-1283.3236	-1287.3174	-1291.7205	-1297.0362	-1301.1197	-1305.0633	-1309.7793	-1314.6967	-1319.2289	-1323.0892	-1327.6805	-1332.4972	-1336.1015	-1341.1371	-1345.9932	-1349.8120	-1355.6791	-1358.5547	-1363.5464	-1368.3741	-1372.3045	-1376.8257	-1380.7321	-1385.7654	-1389.4638	-1393.8888	-1398.4670	-1403.2596	-1407.8093	-1412.2759	-1415.7401	-1419.6268	-1426.0344	-1428.5642	-1432.9542	-1437.5674	-1442.1433	-1447.1351	-1451.0130	-1455.7531	-1459.2546	-1457.8890	-1443.7168	-1443.0143	-1465.9599	-1478.3813	-1486.1677	-1489.4350	-1494.0897	-1500.2764	-1502.9594	-1507.0977	-1511.3935	-1516.0767	-1519.8146	-1512.3061	-1503.7122	-1522.8236	-1534.8074	-1541.0641	-1545.9245	-1549.5814	-1554.0151	-1558.2059	-1562.7403	-1565.9288	-1557.9433	-1570.3472	-1577.7331	-1583.5456	-1587.4409	-1592.5750	-1596.6454	-1600.2344	-1605.0796	-1609.8591	-1613.1088	-1608.3337	-1599.8164	-1616.5534	-1627.0403	-1633.4151	-1638.6017	-1643.0770	-1647.3247	-1651.3908	-1655.1680	-1660.1269	-1664.3418	-1668.5786	-1672.5134	-1676.1965	-1681.1510	-1684.9348	-1687.9723	-1691.9093	-1696.6756	-1702.5734	-1705.9042	-1708.6550	-1714.6031	-1718.4350	-1722.5952	-1726.1273	-1731.4889	-1735.4215	-1738.9186	-1742.5164	-1747.8036	-1751.8609	-1756.1349	-1759.8420	-1764.7244
-1213.7101	-1218.8813	-1222.9518	-1227.7925	-1232.1234	-1236.6797	-1242.3039	-1246.7661	-1250.9591	-1255.9071	-1260.1329	-1264.5163	-1269.0879	-1273.5851	-1278.1633	-1282.6451	-1287.0811	-1291.6680	-1296.1170	-1301.9032	-1305.1924	-1309.5232	-1314.2240	-1318.3404	-1323.4547	-1327.1334	-1331.3177	-1337.3030	-1341.1021	-1344.8158	-1349.5362	-1353.1843	-1359.0974	-1362.6755	-1366.6452	-1371.6370	-1376.4515	-1380.8809	-1384.5421	-1388.1005	-1392.8471	-1397.0139	-1401.7496	-1406.0367	-1411.1532	-1415.6395	-1418.7908	-1423.1479	-1428.0915	-1432.4290	-1437.6637	-1440.5786	-1445.7148	-1450.6585	-1453.9258	-1459.5675	-1462.7079	-1463.5526	-1470.4746	-1473.9126	-1479.6681	-1485.4280	-1488.3123	-1493.7002	-1497.0200	-1502.0534	-1507.1349	-1510.1067	-1514.1531	-1518.7269	-1523.9485	-1527.1151	-1531.6867	-1536.1664	-1540.0990	-1544.8019	-1548.8614	-1553.0084	-1556.9935	-1559.5343	-1560.0354	-1560.4862	-1552.7502	-1564.9550	-1579.5408	-1586.4934	-1591.9928	-1595.7897	-1600.5255	-1604.6681	-1608.8393	-1612.5377	-1616.4287	-1619.1117	-1624.3901	-1629.9487	-1634.4131	-1638.4047	-1642.6787	-1646.2721	-1651.0406	-1654.8156	-1655.6100	-1641.9631	-1649.2002	-1666.0619	-1675.0716	-1679.3828	-1684.1513	-1688.9177	-1692.0471	-1695.9009	-1701.2035	-1705.4227	-1709.8061	-1713.3732	-1717.2445	-1722.0547	-1726.5190	-1729.8564	-1733.9662	-1738.5225	-1737.7390	-1728.7775	-1741.6432	-1753.6269	-1759.5553	-1764.7353
-1213.8261	-1217.9381	-1219.9843	-1226.1644	-1231.9199	-1236.6250	-1241.4526	-1245.5165	-1250.8322	-1254.8282	-1259.3035	-1263.9058	-1269.5606	-1273.4560	-1278.1370	-1282.4132	-1287.4137	-1290.7948	-1294.8806	-1300.7302	-1304.6015	-1309.7158	-1313.1079	-1316.9048	-1321.8725	-1327.0853	-1331.2082	-1335.7952	-1340.2552	-1344.5620	-1348.9256	-1353.3681	-1356.9768	-1361.6447	-1365.8487	-1369.7462	-1375.0728	-1379.1411	-1384.4436	-1388.8839	-1391.1489	-1397.3115	-1401.8590	-1404.7171	-1409.7001	-1413.7859	-1418.9987	-1422.6139	-1426.9754	-1431.9760	-1436.5760	-1440.6552	-1444.6119	-1448.0783	-1445.6930	-1438.7885	-1454.2584	-1464.5768	-1470.3980	-1476.1360	-1479.9723	-1482.5283	-1488.4414	-1492.1092	-1496.6874	-1501.2502	-1505.4695	-1509.4984	-1513.8861	-1518.4424	-1522.9243	-1527.5068	-1531.8136	-1535.3479	-1540.3331	-1544.7472	-1548.6841	-1553.4811	-1556.8316	-1560.3768	-1565.5655	-1569.8439	-1574.1244	-1578.2014	-1582.0793	-1587.2374	-1591.5530	-1594.6058	-1599.4422	-1604.1123	-1606.1081	-1606.6158	-1597.2253	-1591.7806	-1606.4101	-1623.1646	-1631.3646	-1637.3981	-1641.8996	-1645.5762	-1649.7232	-1654.8113	-1658.7154	-1661.5319	-1666.1691	-1671.1106	-1675.9973	-1679.0348	-1683.5101	-1687.0773	-1692.6183	-1696.5400	-1698.9713	-1704.7990	-1708.6725	-1712.7977	-1717.3146	-1720.4068	-1725.2870	-1729.0554	-1733.8896	-1737.4742	-1741.5316	-1745.5998	-1750.3421	-1753.7845	-1757.8418	-1763.3347
-1212.3270	-1216.9927	-1222.2318	-1226.5145	-1230.3792	-1236.1435	-1239.4896	-1244.5295	-1249.1274	-1253.7909	-1259.3166	-1262.4483	-1267.4794	-1272.8629	-1275.8042	-1281.4371	-1285.3106	-1290.3943	-1294.3466	-1298.8788	-1303.6736	-1307.4836	-1313.0904	-1316.9857	-1321.0606	-1325.1792	-1329.1752	-1334.0379	-1339.1828	-1342.2050	-1345.8706	-1350.2847	-1355.7623	-1359.5679	-1357.6487	-1367.3871	-1373.5015	-1377.8346	-1382.6951	-1387.6475	-1390.8841	-1396.3026	-1399.9179	-1404.1700	-1410.1465	-1413.2585	-1417.9220	-1422.2025	-1426.5028	-1430.9890	-1434.3395	-1439.3706	-1440.1716	-1426.1351	-1429.6366	-1449.6015	-1459.8804	-1465.8833	-1469.5992	-1474.4137	-1478.1056	-1483.3534	-1487.5223	-1491.4965	-1495.8252	-1501.0205	-1505.3448	-1508.5508	-1513.7045	-1518.2061	-1522.0489	-1526.1916	-1530.0563	-1535.0087	-1538.4927	-1543.1343	-1547.0078	-1551.0410	-1556.4202	-1559.8472	-1562.8410	-1554.8533	-1559.9610	-1573.0040	-1579.6874	-1584.9199	-1590.0714	-1594.1419	-1597.6674	-1602.0486	-1606.6114	-1611.1502	-1614.1068	-1613.1723	-1620.5823	-1627.9551	-1631.4303	-1635.0017	-1640.5297	-1645.0312	-1649.0820	-1652.7454	-1656.3169	-1661.5188	-1666.0400	-1669.5940	-1672.6031	-1678.4155	-1682.4422	-1685.7489	-1689.7734	-1695.4567	-1699.9626	-1703.4641	-1707.5324	-1712.1674	-1716.9163	-1720.6060	-1723.7179	-1727.4316	-1733.4322	-1736.7849	-1739.8049	-1745.4138	-1749.8213	-1754.6533	-1757.3647	-1762.2974
-1201.2777	-1211.9025	-1220.2513	-1226.0177	-1230.6200	-1234.9136	-1239.1854	-1245.2189	-1248.3593	-1253.0031	-1257.7869	-1262.7415	-1267.2956	-1271.9197	-1275.9967	-1281.1942	-1285.1312	-1288.3109	-1293.3618	-1298.3777	-1295.0447	-1279.9906	-1287.4400	-1308.8251	-1318.9947	-1325.2601	-1329.3306	-1333.5630	-1339.3470	-1343.1439	-1347.7680	-1351.5102	-1355.6200	-1355.4362	-1345.2601	-1353.4579	-1365.2009	-1375.2829	-1381.2201	-1385.5072	-1389.9584	-1395.2894	-1399.6181	-1402.5484	-1408.0216	-1413.0112	-1417.9417	-1421.1543	-1425.4282	-1430.9146	-1433.8471	-1437.9350	-1434.9654	-1425.9031	-1442.6905	-1453.7660	-1459.7076	-1464.6227	-1468.9295	-1473.4399	-1477.9108	-1481.6180	-1487.5770	-1490.4482	-1494.3961	-1499.1100	-1503.4343	-1508.6755	-1511.6036	-1516.0330	-1520.8278	-1525.3140	-1529.0628	-1533.6585	-1537.9675	-1542.8564	-1546.4979	-1550.7106	-1554.9758	-1559.4774	-1564.3685	-1567.3907	-1571.9513	-1576.4945	-1580.9632	-1585.0337	-1589.5834	-1593.3146	-1598.5406	-1601.6306	-1605.6617	-1610.1829	-1614.3738	-1618.7703	-1622.9895	-1626.4647	-1631.4565	-1635.9690	-1638.9934	-1643.8604	-1648.4014	-1652.8286	-1656.6714	-1661.3875	-1666.2611	-1670.4475	-1674.0912	-1675.8113	-1681.4596	-1686.4382	-1689.8193	-1693.7738	-1698.8969	-1703.7377	-1707.0531	-1710.2723	-1713.8985	-1719.7175	-1723.7901	-1727.1931	-1731.1060	-1735.9971	-1739.9559	-1741.4987	-1747.6526	-1752.4999	-1757.1809	-1761.2448
-1182.2210	-1191.2854	-1212.3927	-1223.3894	-1229.9416	-1234.2090	-1239.3036	-1243.4025	-1248.0638	-1253.2985	-1257.2070	-1261.9230	-1266.4618	-1270.9612	-1275.3665	-1278.8570	-1283.3958	-1289.0200	-1293.7601	-1297.8087	-1301.9557	-1307.0460	-1310.7597	-1315.5414	-1319.6906	-1324.3848	-1330.2825	-1332.9655	-1336.7931	-1335.6967	-1332.3331	-1345.4964	-1353.1143	-1360.3098	-1364.9448	-1368.7396	-1372.3023	-1376.7054	-1381.7431	-1386.9428	-1388.2361	-1381.4608	-1395.3879	-1402.5112	-1407.8421	-1412.8383	-1416.6833	-1417.9220	-1412.1424	-1424.2356	-1432.8054	-1439.7580	-1443.5505	-1446.8375	-1451.4988	-1456.7510	-1460.6551	-1463.7671	-1468.3343	-1473.5099	-1477.9086	-1481.3772	-1485.4149	-1488.6625	-1480.0861	-1482.1541	-1497.2695	-1505.7409	-1511.3541	-1516.6610	-1520.2829	-1523.6333	-1529.1832	-1533.1901	-1536.6435	-1540.0333	-1545.4606	-1550.4655	-1554.0348	-1557.9170	-1562.2479	-1567.6861	-1570.2312	-1575.3040	-1579.1906	-1583.3223	-1588.9619	-1591.0912	-1596.1180	-1600.8297	-1605.1802	-1604.9614	-1597.0612	-1610.2770	-1619.6019	-1625.4821	-1629.8874	-1634.9076	-1639.7331	-1643.3987	-1647.3794	-1650.5570	-1656.2666	-1657.7416	-1663.6306	-1668.6224	-1671.7299	-1668.8193	-1674.0846	-1682.5866	-1689.8609	-1694.0561	-1698.2754	-1701.8097	-1706.1230	-1710.4889	-1714.4478	-1718.5839	-1722.9082	-1727.6505	-1730.8871	-1734.7081	-1739.4482	-1743.5690	-1746.9457	-1751.2678	-1755.2157	-1760.5379
-1208.3310	-1214.0865	-1219.0148	-1223.2756	-1227.6678	-1232.9856	-1238.0934	-1241.5489	-1246.9609	-1251.3136	-1255.9815	-1260.4174	-1264.1924	-1269.1295	-1274.6487	-1278.4084	-1283.0369	-1287.4772	-1292.1188	-1296.7079	-1301.2095	-1304.7963	-1309.8865	-1314.9593	-1319.4937	-1324.5380	-1327.6565	-1333.9022	-1336.6640	-1340.7147	-1345.4811	-1350.8143	-1354.5915	-1357.9069	-1362.3144	-1368.1662	-1372.2104	-1376.3312	-1380.5657	-1384.2795	-1386.1703	-1371.2387	-1375.8585	-1396.3617	-1404.8703	-1409.1880	-1394.4753	-1396.8782	-1417.6025	-1426.7807	-1431.7681	-1437.2479	-1427.0499	-1429.3236	-1445.4697	-1452.9541	-1458.1319	-1462.6969	-1466.7608	-1471.4506	-1476.2323	-1480.9352	-1484.8678	-1489.2380	-1492.8139	-1497.2826	-1501.6201	-1505.5855	-1509.9120	-1515.0307	-1517.7946	-1523.1563	-1527.6928	-1532.2141	-1537.0527	-1540.3397	-1544.7318	-1549.0561	-1553.7000	-1557.4794	-1561.8846	-1566.1148	-1570.7959	-1575.4878	-1579.2650	-1583.3005	-1588.2310	-1591.5004	-1597.2035	-1600.2979	-1604.0576	-1609.3338	-1612.4676	-1616.8226	-1621.4533	-1625.7229	-1630.1369	-1634.0563	-1638.1421	-1642.6984	-1646.8323	-1651.0494	-1652.4719	-1644.1581	-1653.1481	-1665.3704	-1671.3075	-1676.4416	-1680.5580	-1684.8035	-1688.1540	-1691.7254	-1697.3913	-1701.8928	-1704.3635	-1709.5151	-1713.2813	-1717.8004	-1721.4813	-1725.6218	-1728.2588	-1732.8501	-1738.1833	-1741.8445	-1746.9523	-1750.4887	-1752.1541	-1737.5771
-1208.5826	-1213.8720	-1217.0124	-1222.9277	-1227.4293	-1231.8214	-1236.1610	-1242.1529	-1246.6348	-1250.1253	-1254.8370	-1259.6865	-1264.4091	-1267.8690	-1272.6310	-1269.1273	-1275.2374	-1285.1093	-1289.8231	-1295.2548	-1301.0519	-1304.6934	-1308.2868	-1312.8912	-1318.2134	-1322.8682	-1327.2363	-1330.8406	-1335.7930	-1340.5418	-1343.7851	-1349.0657	-1353.2434	-1358.4168	-1362.6098	-1366.8356	-1370.7726	-1375.5674	-1379.4409	-1384.2751	-1387.8488	-1391.8974	-1396.8541	-1400.6707	-1405.6056	-1410.5558	-1415.5804	-1419.4604	-1422.1062	-1423.4827	-1430.6848	-1435.9720	-1440.7340	-1444.2223	-1445.4654	-1438.0072	-1442.8130	-1457.2653	-1464.1347	-1470.3061	-1475.3503	-1478.5082	-1483.9574	-1488.2117	-1491.7503	-1496.2059	-1497.8166	-1481.1584	-1486.2443	-1505.7671	-1515.8207	-1521.9264	-1526.4126	-1529.6821	-1534.8227	-1539.6700	-1544.2723	-1548.3712	-1551.8004	-1555.5185	-1561.2631	-1565.3555	-1568.7781	-1571.6165	-1570.1109	-1577.1488	-1585.2372	-1589.9160	-1595.0172	-1599.1008	-1603.3989	-1607.5087	-1612.2247	-1616.2864	-1621.2060	-1624.4842	-1628.4321	-1633.5333	-1636.9888	-1640.8536	-1646.1539	-1649.9070	-1653.9928	-1658.1158	-1661.1445	-1666.3924	-1671.9422	-1674.8637	-1679.2559	-1683.8559	-1688.3706	-1691.8108	-1695.0300	-1700.1421	-1705.0004	-1709.0074	-1713.0340	-1716.1722	-1720.6497	-1726.0135	-1728.6703	-1733.3600	-1737.8922	-1742.7549	-1746.0463	-1749.2414	-1753.2418	-1756.9752
-1208.6045	-1213.3709	-1216.8942	-1221.7197	-1226.6327	-1232.2416	-1235.8065	-1240.0695	-1245.5165	-1250.1472	-1254.0973	-1258.9446	-1262.3082	-1268.0440	-1272.5106	-1271.8803	-1264.3609	-1279.1043	-1288.6698	-1294.5063	-1299.2749	-1303.8728	-1308.1424	-1313.2698	-1317.0448	-1321.3144	-1319.3252	-1314.8017	-1329.5888	-1337.9748	-1344.0717	-1347.4463	-1350.9718	-1355.6835	-1360.7562	-1365.2162	-1369.7572	-1373.9108	-1379.3752	-1382.9270	-1379.9508	-1367.2733	-1376.1758	-1394.8517	-1403.6688	-1408.1420	-1414.3023	-1418.8280	-1422.9553	-1426.5049	-1429.6169	-1435.1667	-1439.7142	-1444.0845	-1448.4832	-1451.5995	-1456.3440	-1461.1432	-1465.7257	-1469.9756	-1474.8886	-1479.0488	-1483.2527	-1487.9381	-1492.3937	-1496.8865	-1500.9636	-1504.2199	-1509.3124	-1505.6489	-1499.5958	-1514.7746	-1524.7713	-1530.7129	-1535.4333	-1539.0113	-1543.7274	-1548.3931	-1552.4197	-1550.9491	-1554.0829	-1563.5303	-1568.9663	-1573.4044	-1577.6675	-1581.6132	-1586.8172	-1590.4872	-1594.2513	-1599.1862	-1602.4994	-1607.8173	-1611.1349	-1614.0586	-1620.0024	-1623.7686	-1626.7449	-1631.8811	-1636.2754	-1640.2452	-1644.7424	-1647.4735	-1652.7542	-1656.2666	-1660.9957	-1665.4995	-1668.6617	-1674.8593	-1677.7502	-1680.9694	-1686.3354	-1689.5414	-1693.8920	-1697.8114	-1701.8491	-1708.1495	-1711.8939	-1715.6733	-1720.5359	-1723.4575	-1728.7534	-1732.5284	-1736.3428	-1741.2777	-1744.0329	-1747.5935	-1750.0773	-1755.9401
-1206.5627	-1212.1322	-1216.4609	-1221.6825	-1225.7901	-1230.9854	-1236.0998	-1239.6450	-1243.5229	-1247.9238	-1253.7406	-1258.0058	-1262.3957	-1266.7179	-1271.3858	-1276.3206	-1280.1460	-1284.8664	-1288.9762	-1294.2394	-1299.1874	-1302.1811	-1307.2079	-1312.4076	-1315.9134	-1320.5419	-1324.8859	-1329.4794	-1334.5521	-1338.1280	-1342.3341	-1347.3872	-1352.7204	-1356.8849	-1359.7364	-1364.6319	-1367.0961	-1356.5567	-1359.3228	-1359.0777	-1378.2635	-1387.2995	-1393.0134	-1398.9616	-1403.1743	-1408.4089	-1412.8930	-1417.2195	-1421.0273	-1426.1986	-1430.4069	-1434.4489	-1439.5041	-1443.8766	-1448.5992	-1446.8331	-1434.5496	-1445.9184	-1461.1410	-1468.8179	-1473.0875	-1472.4463	-1478.9372	-1486.0320	-1490.9844	-1495.3765	-1498.4425	-1503.5787	-1506.9204	-1505.4870	-1503.4233	-1516.6282	-1524.0601	-1528.1655	-1533.2164	-1538.2760	-1541.7315	-1545.9639	-1550.5333	-1555.0458	-1559.0244	-1562.6178	-1558.8274	-1549.5507	-1559.3855	-1574.4921	-1583.2370	-1588.4235	-1592.5859	-1596.9036	-1600.8340	-1605.4363	-1609.5155	-1613.2139	-1618.8206	-1622.5869	-1627.0884	-1631.0451	-1634.2249	-1638.9759	-1642.9632	-1647.4254	-1651.0800	-1654.7763	-1657.4527	-1648.7340	-1640.7704	-1651.7300	-1650.5811	-1666.5718	-1682.0155	-1686.4579	-1677.8728	-1685.0705	-1699.6037	-1706.4535	-1712.2309	-1716.3057	-1720.4440	-1724.0746	-1728.1363	-1732.2067	-1737.1985	-1741.1201	-1745.2409	-1749.8651	-1753.3709	-1756.8198
-1203.4836	-1191.1257	-1191.3992	-1212.3817	-1223.3741	-1229.6002	-1233.9245	-1239.3517	-1244.4442	-1249.1274	-1252.8171	-1256.9378	-1262.1660	-1266.6544	-1270.6198	-1274.8675	-1280.3451	-1284.9583	-1288.4182	-1293.6397	-1297.9706	-1303.0127	-1306.7308	-1311.5738	-1315.6245	-1319.7760	-1324.9166	-1329.5166	-1332.4184	-1337.8216	-1341.8790	-1345.3673	-1351.5911	-1355.5587	-1361.0320	-1363.9032	-1359.4344	-1345.2557	-1351.9785	-1371.1337	-1378.3379	-1386.2184	-1394.6482	-1398.2241	-1402.3689	-1407.9713	-1412.2365	-1417.2326	-1420.9814	-1424.1218	-1426.3846	-1433.1424	-1437.9394	-1443.3579	-1446.1722	-1451.3303	-1456.0288	-1459.6747	-1464.2507	-1468.8420	-1473.5952	-1476.8647	-1480.2021	-1486.0167	-1490.1528	-1494.5274	-1498.7489	-1502.2438	-1507.1874	-1510.7020	-1515.3743	-1520.2479	-1524.5853	-1529.4961	-1532.4111	-1537.2956	-1542.3246	-1545.4321	-1549.8549	-1553.4045	-1558.5320	-1562.9920	-1562.7644	-1564.0030	-1569.1589	-1576.2450	-1582.0531	-1587.5263	-1592.8004	-1597.5536	-1599.9083	-1603.3638	-1608.9049	-1613.2161	-1618.6937	-1620.9981	-1625.5084	-1629.6007	-1635.1265	-1639.4880	-1643.0442	-1647.1693	-1652.0298	-1655.5553	-1657.9757	-1644.8277	-1653.2028	-1665.9022	-1671.5220	-1660.4618	-1669.6006	-1686.7337	-1692.3710	-1695.9578	-1700.1771	-1705.2477	-1709.9921	-1714.4215	-1718.7436	-1723.5078	-1726.3462	-1721.8490	-1708.5828	-1719.4745	-1738.1745	-1745.8581	-1752.3401	-1756.2399
-1205.0046	-1209.0816	-1214.0690	-1218.8857	-1223.4617	-1228.8101	-1233.3380	-1237.5835	-1242.3608	-1246.7727	-1251.4318	-1255.9487	-1260.1045	-1264.5338	-1269.7269	-1274.0666	-1267.1687	-1257.5221	-1274.9003	-1288.7793	-1295.4561	-1300.1590	-1305.6651	-1309.5342	-1304.7131	-1294.4101	-1309.2650	-1323.9646	-1331.4599	-1336.6771	-1341.2706	-1346.6169	-1350.5932	-1354.7096	-1358.6094	-1363.3210	-1367.4046	-1370.8010	-1374.5192	-1380.7912	-1384.1810	-1389.3479	-1393.3833	-1398.1934	-1403.2005	-1407.2097	-1410.3654	-1413.2103	-1418.7120	-1423.3186	-1427.7939	-1432.8623	-1437.3004	-1442.5745	-1446.1197	-1449.8444	-1455.4708	-1459.3202	-1462.1564	-1467.4305	-1471.9583	-1476.2717	-1480.4494	-1484.3097	-1488.9448	-1493.1772	-1498.0989	-1501.4953	-1505.2813	-1510.6976	-1514.1772	-1518.6525	-1523.2482	-1527.4849	-1532.3213	-1535.7987	-1539.8692	-1544.5480	-1548.5878	-1552.2950	-1556.8119	-1561.2784	-1566.5875	-1569.9380	-1573.4832	-1578.3590	-1582.1537	-1587.0952	-1590.2881	-1591.5552	-1579.2453	-1574.2207	-1581.1077	-1578.8930	-1593.1221	-1613.7194	-1617.2296	-1603.9875	-1606.3007	-1628.4737	-1640.5209	-1644.5082	-1650.7124	-1655.7173	-1659.4266	-1663.7181	-1667.2502	-1672.1369	-1676.2621	-1679.4134	-1684.0944	-1688.2743	-1692.4761	-1697.4066	-1698.6102	-1688.2524	-1700.3587	-1711.6291	-1717.5728	-1721.2756	-1726.5672	-1725.6393	-1730.5435	-1738.0586	-1742.8359	-1747.7970	-1751.2328	-1755.6578
-1204.4093	-1208.6155	-1213.6554	-1218.0344	-1224.0613	-1227.0047	-1232.0643	-1238.5048	-1240.5466	-1246.6435	-1251.2217	-1255.2396	-1260.8463	-1263.0960	-1267.3569	-1273.3116	-1277.7694	-1280.9907	-1285.7768	-1291.0815	-1295.6596	-1300.7652	-1304.5971	-1308.9171	-1313.7031	-1317.5919	-1321.4632	-1326.7964	-1331.5671	-1335.4800	-1334.2086	-1324.2163	-1328.4180	-1347.5907	-1355.6528	-1361.2727	-1366.3126	-1370.6982	-1370.6544	-1355.0576	-1360.3929	-1381.8635	-1390.9082	-1396.7119	-1402.0735	-1406.6910	-1410.0678	-1413.7771	-1418.5019	-1423.4827	-1428.1944	-1431.4901	-1435.4753	-1440.6509	-1446.0212	-1449.0894	-1453.6960	-1458.0378	-1462.8239	-1466.8899	-1470.7175	-1474.2780	-1479.7863	-1484.4520	-1488.2138	-1492.3850	-1496.7333	-1501.5085	-1505.7102	-1508.9731	-1513.1289	-1518.2630	-1522.8674	-1527.0473	-1532.0434	-1536.0023	-1540.3747	-1545.0317	-1548.3055	-1552.6058	-1557.1051	-1560.7532	-1565.3708	-1569.3756	-1574.8838	-1578.3590	-1580.9216	-1584.8017	-1586.8282	-1591.9206	-1598.2911	-1602.9809	-1608.3403	-1611.8133	-1614.9887	-1618.4989	-1624.6046	-1629.1762	-1631.7913	-1637.6410	-1641.6108	-1646.2414	-1649.3884	-1653.5507	-1657.5927	-1663.0331	-1667.5303	-1670.3775	-1674.4348	-1679.9277	-1683.7618	-1686.4164	-1683.0812	-1673.1480	-1676.8092	-1691.5723	-1704.4358	-1712.5198	-1716.9513	-1721.4047	-1725.0156	-1727.7030	-1729.8257	-1735.8067	-1740.7875	-1745.9237	-1749.6944	-1755.0231
-1202.6695	-1208.4360	-1211.8981	-1218.1788	-1223.0568	-1227.0594	-1231.4997	-1235.4038	-1240.9099	-1244.9672	-1249.4141	-1254.8960	-1258.7236	-1263.1529	-1267.4094	-1272.0707	-1276.8086	-1281.5378	-1286.2626	-1289.3920	-1294.3116	-1300.1328	-1303.7305	-1307.1510	-1312.6746	-1317.6642	-1321.3451	-1326.4922	-1330.6393	-1335.1518	-1340.0866	-1344.0345	-1347.6170	-1351.3832	-1357.0315	-1361.6360	-1365.3059	-1369.8863	-1374.2500	-1378.5984	-1383.4457	-1386.9756	-1392.1118	-1396.3026	-1399.7275	-1404.4917	-1404.9928	-1392.9369	-1408.7175	-1419.5151	-1426.7085	-1431.9475	-1435.9873	-1439.5019	-1441.4759	-1447.3540	-1451.9409	-1457.2150	-1461.6706	-1464.7540	-1465.7979	-1472.1815	-1478.4404	-1482.8085	-1487.4698	-1491.5424	-1495.3481	-1499.8825	-1504.0273	-1509.2927	-1512.0698	-1513.5360	-1520.2063	-1524.9748	-1529.9185	-1533.8904	-1538.8559	-1542.6879	-1546.9378	-1548.6863	-1551.3058	-1556.7462	-1560.8342	-1565.4211	-1569.8767	-1574.7438	-1578.5691	-1582.3748	-1586.7997	-1589.7979	-1592.8770	-1585.7230	-1580.4533	-1589.8022	-1605.1583	-1607.7232	-1617.2953	-1625.8301	-1631.3755	-1635.2250	-1640.5494	-1643.5541	-1648.7362	-1652.7673	-1656.5445	-1661.1314	-1665.5389	-1669.5065	-1673.6426	-1677.7065	-1681.7025	-1685.8452	-1686.6286	-1692.4848	-1698.9603	-1703.9171	-1708.1167	-1710.6158	-1715.4413	-1720.7920	-1723.1489	-1727.9174	-1732.7582	-1735.8680	-1741.2405	-1744.6282	-1748.8562	-1753.8917
-1202.2909	-1207.2149	-1212.9967	-1216.7739	-1221.0588	-1226.3876	-1230.8016	-1235.4936	-1239.4568	-1244.4267	-1250.0662	-1253.5108	-1250.7796	-1239.8791	-1241.9056	-1262.6255	-1274.6268	-1279.9468	-1285.3982	-1290.2521	-1294.4713	-1298.4521	-1303.9187	-1307.9498	-1312.2500	-1316.3796	-1321.2663	-1326.2143	-1329.9827	-1333.7009	-1338.4782	-1343.1592	-1347.1508	-1350.9718	-1355.9526	-1360.9247	-1364.9492	-1368.5404	-1373.7729	-1377.7142	-1381.9882	-1387.0807	-1390.4224	-1394.9305	-1399.8829	-1403.6973	-1407.3935	-1412.8711	-1417.4208	-1422.1872	-1426.2161	-1429.3761	-1435.0660	-1439.0380	-1442.3316	-1431.7068	-1426.2598	-1444.8439	-1457.9525	-1463.9662	-1468.7523	-1474.1642	-1478.0749	-1481.2394	-1486.3077	-1490.4132	-1495.4094	-1499.5170	-1503.4955	-1507.8571	-1512.2580	-1516.9981	-1520.8059	-1525.4650	-1529.5836	-1534.2296	-1537.4772	-1541.6506	-1546.6992	-1551.0454	-1554.8730	-1558.8887	-1561.9525	-1554.2230	-1564.6574	-1574.4133	-1574.4549	-1581.2083	-1588.2747	-1592.3495	-1595.6147	-1601.4315	-1606.2460	-1609.8591	-1612.7346	-1610.1873	-1618.8447	-1625.4712	-1630.9116	-1636.4505	-1640.2342	-1643.8976	-1647.3269	-1652.5288	-1657.2054	-1660.1182	-1664.7664	-1668.9047	-1673.0911	-1677.5817	-1681.3918	-1684.6700	-1690.7188	-1694.6864	-1697.7020	-1702.2561	-1706.6110	-1710.9922	-1713.8000	-1699.4615	-1706.6089	-1723.3130	-1730.3094	-1735.2990	-1740.2601	-1737.3998	-1724.5560	-1741.4221
-1199.9537	-1190.4669	-1196.0846	-1212.5984	-1220.3344	-1226.0134	-1230.0466	-1235.0843	-1238.4961	-1243.4047	-1247.1534	-1252.4888	-1258.0167	-1260.5597	-1264.8030	-1270.1799	-1275.2505	-1279.4435	-1283.7394	-1288.0658	-1293.3531	-1297.4651	-1301.0716	-1305.8992	-1310.8166	-1315.5873	-1319.4258	-1323.9515	-1329.9215	-1333.9613	-1338.1499	-1341.1874	-1346.9211	-1351.5868	-1355.1889	-1359.8415	-1363.9163	-1369.0875	-1373.1777	-1376.6747	-1381.0953	-1385.5050	-1390.6149	-1395.6417	-1398.1234	-1404.0671	-1408.3630	-1412.2693	-1416.4754	-1420.5875	-1425.5880	-1429.7197	-1433.9631	-1438.0335	-1442.6532	-1446.6668	-1451.2537	-1455.6809	-1460.0468	-1464.8394	-1468.2643	-1472.9234	-1472.9715	-1479.0947	-1485.3580	-1489.3606	-1494.5252	-1496.8450	-1495.3568	-1504.2374	-1509.9010	-1516.3459	-1519.9940	-1523.5633	-1528.2903	-1531.9690	-1536.3962	-1540.9787	-1544.6771	-1549.4129	-1553.7394	-1557.9958	-1552.0324	-1539.3637	-1553.5227	-1570.9469	-1576.9737	-1582.0334	-1587.6663	-1592.7894	-1596.0567	-1600.4926	-1605.6332	-1609.7846	-1613.8398	-1617.3281	-1621.9763	-1626.1015	-1629.8809	-1633.5333	-1638.4769	-1642.7619	-1646.8367	-1650.3885	-1653.8440	-1657.9298	-1664.0595	-1667.6595	-1671.6577	-1677.2600	-1680.6192	-1684.9786	-1688.9418	-1692.8766	-1698.1638	-1702.3436	-1706.7642	-1709.5523	-1714.0385	-1712.2418	-1716.7215	-1725.4599	-1730.9353	-1734.7847	-1739.7940	-1743.8382	-1747.1098	-1752.4693
-1201.1289	-1206.1929	-1209.3945	-1215.3536	-1219.4000	-1225.1117	-1228.4906	-1232.0293	-1238.5814	-1243.5666	-1247.9544	-1251.6791	-1256.4805	-1260.1898	-1265.2691	-1268.8800	-1274.7318	-1278.7870	-1283.4592	-1287.9455	-1292.2151	-1297.2200	-1301.6975	-1305.8620	-1309.3657	-1311.3287	-1309.7136	-1319.9182	-1326.2318	-1331.2870	-1337.5459	-1341.3012	-1345.8159	-1349.8120	-1354.4580	-1359.5767	-1362.3034	-1367.6103	-1372.3067	-1376.6310	-1381.1457	-1384.7281	-1389.0568	-1393.7028	-1398.1168	-1402.5177	-1406.3890	-1411.1642	-1415.2324	-1419.5545	-1424.2706	-1427.9865	-1432.9826	-1437.6111	-1440.8609	-1443.6971	-1434.2782	-1432.1007	-1449.7459	-1461.3926	-1466.8549	-1471.5053	-1474.9192	-1479.5455	-1484.9684	-1488.3320	-1493.0962	-1495.4094	-1498.2762	-1505.9619	-1510.0761	-1512.4943	-1517.5036	-1522.7623	-1526.7847	-1531.1768	-1535.3195	-1540.4425	-1544.4561	-1547.8000	-1552.9581	-1557.9148	-1562.3508	-1565.9223	-1567.8546	-1574.0982	-1578.9958	-1582.4754	-1586.5459	-1591.6317	-1595.5074	-1600.1184	-1603.4076	-1607.8391	-1612.8922	-1616.7110	-1620.4466	-1624.8891	-1628.8895	-1633.2335	-1637.9408	-1640.1467	-1644.2850	-1643.5803	-1646.1977	-1656.9669	-1662.5429	-1668.0096	-1671.4564	-1674.4917	-1679.1552	-1684.5190	-1688.7777	-1692.5921	-1696.7303	-1701.1925	-1705.0945	-1708.7229	-1712.6379	-1715.8396	-1711.1804	-1722.0328	-1727.8102	-1726.3330	-1719.9122	-1735.8417	-1744.8229	-1750.3071
-1200.2010	-1204.2364	-1210.1058	-1213.2089	-1218.4918	-1223.7199	-1227.9479	-1232.6924	-1237.6404	-1240.7808	-1247.1075	-1251.3355	-1255.8896	-1259.1656	-1264.3281	-1268.4708	-1273.1649	-1277.2332	-1281.5860	-1286.3851	-1290.9152	-1295.2045	-1300.0255	-1305.1070	-1309.1906	-1312.9459	-1317.6707	-1321.9381	-1326.3237	-1330.6852	-1334.2852	-1340.4171	-1344.0630	-1348.2013	-1352.7094	-1356.5960	-1361.4346	-1366.3958	-1370.1948	-1375.3573	-1379.7276	-1384.3845	-1387.4789	-1392.3088	-1397.7623	-1402.0407	-1406.1374	-1409.3346	-1414.6787	-1419.2460	-1420.7210	-1425.6974	-1431.4223	-1436.3353	-1440.9922	-1444.1064	-1449.5511	-1453.6566	-1458.1144	-1462.6422	-1465.7104	-1471.1792	-1475.0702	-1478.8628	-1483.9793	-1486.9686	-1487.2663	-1485.9751	-1476.3439	-1487.8440	-1505.3732	-1508.5814	-1514.6039	-1521.6966	-1526.4148	-1532.1463	-1534.8884	-1539.9589	-1544.3401	-1548.6710	-1551.3715	-1555.7286	-1561.2303	-1565.5218	-1568.8328	-1574.2142	-1577.1379	-1582.7249	-1585.9090	-1590.1020	-1594.3629	-1598.3830	-1603.6133	-1607.5590	-1610.1917	-1610.3799	-1617.2975	-1623.0246	-1627.7384	-1632.2837	-1636.1441	-1639.7090	-1643.7860	-1647.8652	-1652.2268	-1657.3301	-1660.5602	-1665.2653	-1670.5066	-1674.2488	-1677.7743	-1682.1117	-1686.7162	-1691.7889	-1694.9534	-1698.2360	-1700.3719	-1685.2521	-1694.0474	-1711.2133	-1717.1483	-1724.5801	-1729.4865	-1733.5154	-1736.4982	-1742.2778	-1745.7640	-1750.4975
-1200.1704	-1203.3633	-1208.5323	-1212.8391	-1206.0463	-1200.1966	-1217.7127	-1230.2742	-1236.5834	-1242.0129	-1244.8753	-1250.4601	-1256.1916	-1253.7493	-1252.8258	-1264.6673	-1271.8300	-1278.0845	-1281.3102	-1286.1225	-1291.5454	-1295.8938	-1300.4851	-1305.1377	-1308.4794	-1313.5893	-1317.0273	-1317.7429	-1324.3366	-1330.6896	-1335.0971	-1338.0755	-1343.6516	-1349.2386	-1353.8014	-1357.0753	-1361.1195	-1366.3520	-1370.3677	-1374.6702	-1379.4300	-1383.3669	-1388.5863	-1392.0549	-1395.8584	-1400.5569	-1403.9358	-1408.9298	-1412.5013	-1417.6747	-1422.4717	-1425.9031	-1430.4244	-1435.2345	-1440.4561	-1443.5986	-1447.5006	-1451.2756	-1456.7773	-1461.3117	-1466.0211	-1469.7677	-1474.0876	-1478.4688	-1482.3226	-1486.8811	-1491.0763	-1495.6873	-1489.6407	-1495.8624	-1504.7517	-1496.5408	-1493.1203	-1497.4183	-1501.1627	-1519.9152	-1532.4198	-1538.4533	-1543.0643	-1547.7475	-1552.0718	-1557.0001	-1560.8014	-1564.6333	-1568.7234	-1573.5401	-1576.8840	-1581.2718	-1585.6683	-1587.4409	-1591.1415	-1596.7701	-1602.7248	-1607.3511	-1611.1809	-1614.9318	-1618.6302	-1624.1341	-1627.3817	-1632.4085	-1635.9362	-1637.8182	-1643.8057	-1648.1563	-1653.0146	-1657.8707	-1661.4268	-1665.5608	-1669.5524	-1673.7717	-1677.4526	-1682.7726	-1685.9437	-1690.4474	-1695.0234	-1698.3848	-1689.6858	-1692.5089	-1693.0013	-1690.8238	-1697.4066	-1701.2188	-1700.8489	-1721.6586	-1734.5965	-1740.7087	-1744.9696	-1750.0598
-1198.2030	-1203.1225	-1207.9961	-1212.0797	-1217.7215	-1222.2362	-1226.8953	-1230.5543	-1235.5111	-1240.4613	-1245.4443	-1249.0048	-1253.2941	-1258.4807	-1263.3959	-1266.7529	-1271.5740	-1277.2857	-1281.1329	-1286.4070	-1289.6174	-1294.1912	-1298.7234	-1302.8311	-1307.1029	-1311.6504	-1314.0730	-1314.0423	-1320.3143	-1328.9148	-1334.2983	-1338.2177	-1343.5728	-1346.9101	-1351.6458	-1356.2393	-1360.3010	-1364.4459	-1369.2823	-1373.9808	-1377.5786	-1382.0517	-1376.8586	-1376.8126	-1390.4399	-1398.8631	-1403.7082	-1409.1070	-1413.8734	-1417.4449	-1421.1193	-1425.9075	-1429.8335	-1434.1775	-1438.8520	-1443.0778	-1447.5422	-1452.0897	-1456.5913	-1459.4953	-1466.1152	-1469.8180	-1472.5973	-1476.7050	-1479.3617	-1481.6005	-1488.9229	-1494.7900	-1499.4579	-1504.2878	-1507.8133	-1511.8115	-1516.5407	-1521.0357	-1525.5701	-1529.2926	-1533.2295	-1537.9653	-1542.2436	-1545.5612	-1549.9381	-1554.7001	-1559.7947	-1563.9439	-1567.4651	-1570.7980	-1575.2952	-1580.4183	-1583.7907	-1588.6314	-1593.8267	-1597.7134	-1601.0813	-1606.0709	-1609.6818	-1614.8224	-1617.9474	-1622.0704	-1627.0687	-1630.5658	-1635.3563	-1639.2298	-1643.7466	-1647.8521	-1650.8393	-1655.5356	-1659.1465	-1664.4272	-1669.0338	-1672.8941	-1676.8705	-1681.8951	-1684.6941	-1690.1892	-1692.6752	-1698.3717	-1702.8601	-1701.3917	-1706.9874	-1713.6927	-1719.6452	-1723.9039	-1726.7051	-1731.6618	-1734.2048	-1731.1257	-1741.6497	-1746.5605
-1197.4152	-1202.0218	-1207.3462	-1212.3423	-1216.3975	-1221.4221	-1226.2847	-1230.7644	-1235.5461	-1239.3824	-1244.8665	-1249.1930	-1253.7931	-1257.4280	-1261.6801	-1266.9083	-1270.0114	-1273.9199	-1277.9094	-1284.2055	-1287.9127	-1279.1984	-1286.1751	-1300.3582	-1307.3589	-1311.2696	-1315.6027	-1313.8344	-1307.0635	-1321.2707	-1313.8607	-1315.1431	-1334.8717	-1345.2338	-1350.0461	-1355.5281	-1360.4280	-1364.7763	-1368.5929	-1372.2760	-1376.7973	-1381.1413	-1385.3409	-1389.5930	-1393.7903	-1398.7252	-1403.2771	-1406.9164	-1411.8316	-1416.1034	-1420.9770	-1424.8089	-1429.1354	-1434.1316	-1437.1450	-1441.9967	-1445.5989	-1450.5709	-1455.6743	-1459.5456	-1464.4717	-1467.8835	-1473.0066	-1477.1098	-1477.0726	-1467.7325	-1480.8805	-1492.1311	-1497.2717	-1502.6902	-1507.4610	-1511.2206	-1515.8513	-1519.5848	-1524.5021	-1528.4851	-1533.3258	-1537.6764	-1541.0422	-1546.4585	-1550.2948	-1554.2843	-1559.0244	-1563.4340	-1567.8656	-1571.2313	-1575.2252	-1580.4227	-1584.0161	-1587.6948	-1592.5399	-1596.1268	-1601.0813	-1604.8016	-1609.0078	-1613.0323	-1618.0547	-1620.7026	-1625.8564	-1630.6249	-1634.5334	-1638.4988	-1642.6327	-1645.6987	-1644.9153	-1632.0649	-1643.0901	-1659.0940	-1657.0413	-1659.5382	-1671.9290	-1666.5521	-1661.5231	-1682.0570	-1691.3600	-1694.9796	-1692.3032	-1687.0597	-1697.2840	-1710.5480	-1716.4305	-1722.0853	-1724.0833	-1709.8762	-1716.7193	-1734.4914	-1742.2537	-1747.7379
-1196.9184	-1201.6191	-1205.1731	-1210.6332	-1216.1983	-1220.7502	-1224.9213	-1228.9940	-1233.9201	-1239.4261	-1242.4024	-1247.3307	-1252.0292	-1256.0997	-1261.5357	-1264.9015	-1266.1554	-1267.8974	-1276.9115	-1282.3694	-1288.1074	-1293.0948	-1296.2286	-1300.7565	-1305.9102	-1309.2628	-1313.9417	-1318.8196	-1323.2796	-1321.3210	-1312.7271	-1316.5765	-1333.4557	-1343.7413	-1349.3918	-1354.4295	-1357.7012	-1363.8747	-1368.3435	-1371.5976	-1376.3946	-1380.4344	-1385.5816	-1389.8293	-1394.5475	-1397.9024	-1403.4172	-1407.1900	-1410.4157	-1412.7201	-1418.8433	-1424.2553	-1428.6080	-1432.3743	-1437.2960	-1442.9224	-1445.8068	-1450.2886	-1455.3264	-1458.6506	-1464.0187	-1467.3386	-1471.2887	-1475.6720	-1480.1867	-1484.4935	-1488.3648	-1493.1640	-1498.2083	-1501.8805	-1497.5693	-1496.4051	-1510.7217	-1517.9150	-1522.5763	-1527.4499	-1531.9843	-1536.1489	-1540.3484	-1543.9746	-1549.3231	-1553.1003	-1551.1964	-1554.9561	-1563.7754	-1569.4478	-1573.5576	-1577.9476	-1582.2172	-1587.2418	-1591.7127	-1595.0325	-1599.0855	-1604.5915	-1608.1127	-1611.9752	-1616.7744	-1621.3373	-1625.4252	-1629.2440	-1632.7499	-1637.9911	-1641.9981	-1645.4886	-1650.1893	-1653.8637	-1657.3827	-1653.7958	-1647.5129	-1664.3856	-1673.6601	-1680.2866	-1684.2826	-1688.3290	-1693.0757	-1690.9551	-1679.2055	-1689.7996	-1705.3833	-1713.7103	-1718.3760	-1722.2407	-1726.1142	-1726.3856	-1729.2546	-1736.7915	-1742.0699	-1746.5496
-1196.4085	-1201.7154	-1203.0372	-1193.8065	-1206.3286	-1216.9052	-1223.9125	-1228.9743	-1232.9331	-1238.0190	-1238.4392	-1230.9001	-1243.1771	-1255.0405	-1260.5881	-1262.6890	-1248.7707	-1251.2173	-1270.9437	-1281.7282	-1286.9563	-1291.2587	-1297.3338	-1300.7346	-1305.1092	-1309.4051	-1314.6748	-1318.8393	-1322.5793	-1326.9802	-1330.6611	-1336.9572	-1340.0232	-1344.2665	-1349.7769	-1353.6636	-1358.2855	-1362.4479	-1365.7414	-1371.3722	-1375.6309	-1379.9289	-1383.4282	-1388.5535	-1393.6459	-1397.0029	-1401.5329	-1405.7435	-1398.5020	-1386.7743	-1401.1543	-1417.4099	-1426.8157	-1432.5647	-1436.8014	-1440.7581	-1445.7827	-1449.9275	-1453.7485	-1457.8737	-1462.4737	-1466.6011	-1470.6868	-1474.2233	-1478.0727	-1483.0908	-1488.0607	-1490.4504	-1496.7530	-1500.5499	-1505.9028	-1510.4941	-1514.2866	-1518.8101	-1522.6967	-1527.1873	-1530.4065	-1535.3238	-1540.2434	-1543.3050	-1548.2530	-1552.1112	-1546.2550	-1547.6381	-1560.9283	-1569.3624	-1573.1353	-1578.4553	-1582.6067	-1586.1804	-1590.5178	-1594.9494	-1599.5188	-1603.0881	-1606.4626	-1611.8177	-1615.7525	-1618.9716	-1624.5236	-1628.6094	-1633.0365	-1636.7372	-1640.6938	-1645.2873	-1649.6816	-1652.8614	-1655.6188	-1661.1161	-1665.8299	-1669.6115	-1673.8023	-1678.8860	-1682.7114	-1687.7491	-1691.0120	-1694.6601	-1699.9583	-1704.1272	-1707.1581	-1712.2418	-1716.4677	-1720.1201	-1724.4116	-1727.7686	-1732.8764	-1737.2116	-1741.3215	-1744.7660
-1194.3010	-1199.2272	-1203.7090	-1208.4579	-1213.2133	-1217.8046	-1222.7854	-1227.7247	-1232.4845	-1236.0078	-1240.5838	-1245.8645	-1250.1538	-1254.7713	-1258.6711	-1264.6651	-1268.5452	-1271.7490	-1276.7736	-1281.5794	-1285.9934	-1290.6744	-1294.7558	-1299.5703	-1304.5118	-1308.2780	-1313.4318	-1317.6073	-1321.3735	-1326.5010	-1330.4861	-1334.4055	-1339.4082	-1343.9908	-1348.2319	-1351.7947	-1357.1388	-1361.5681	-1365.9296	-1369.8666	-1374.5389	-1379.2024	-1383.4348	-1387.1879	-1391.6194	-1396.8060	-1400.7385	-1405.3889	-1408.9889	-1413.7202	-1417.5018	-1421.8786	-1427.0083	-1430.6892	-1436.7467	-1440.4977	-1443.1741	-1448.5948	-1453.5275	-1456.7204	-1461.6465	-1464.3382	-1467.0344	-1471.1705	-1476.8035	-1481.4144	-1486.8264	-1491.9692	-1495.8908	-1499.2697	-1502.6618	-1506.7760	-1512.4768	-1516.6632	-1521.3683	-1526.0778	-1529.4304	-1533.7394	-1538.2191	-1543.1759	-1547.5636	-1551.3715	-1555.8118	-1550.3407	-1553.2951	-1565.7362	-1571.2335	-1576.9628	-1582.0552	-1585.1475	-1588.6840	-1593.2030	-1598.2320	-1602.7380	-1605.8455	-1609.9597	-1614.3913	-1619.4268	-1623.6986	-1620.7661	-1627.2920	-1635.2753	-1640.1204	-1637.0720	-1642.9304	-1651.3776	-1656.5445	-1661.1095	-1665.1143	-1670.2024	-1674.1809	-1677.5139	-1681.6784	-1686.3113	-1689.6049	-1691.8743	-1693.4324	-1702.1248	-1707.7840	-1711.1980	-1715.6404	-1719.9057	-1724.2300	-1728.3573	-1732.8961	-1736.0452	-1740.9976	-1745.6764
-1193.4213	-1197.7544	-1202.7374	-1208.2916	-1212.9792	-1218.7456	-1222.3368	-1226.6633	-1231.9418	-1236.6469	-1241.4001	-1243.8292	-1247.0615	-1253.5896	-1258.6142	-1263.4878	-1267.3481	-1272.2524	-1276.9356	-1280.9382	-1284.6935	-1291.0684	-1294.8237	-1298.8591	-1303.3563	-1307.7900	-1311.7423	-1316.6159	-1320.8177	-1325.0019	-1329.7486	-1334.0751	-1338.2024	-1342.7084	-1346.9933	-1352.4862	-1356.0840	-1360.0997	-1365.4679	-1369.5646	-1374.3594	-1377.8871	-1380.3228	-1382.9818	-1390.2779	-1395.1559	-1399.4146	-1404.6055	-1408.8619	-1412.3153	-1417.1407	-1421.4738	-1425.6340	-1429.5140	-1433.8383	-1439.3663	-1443.9203	-1447.1548	-1451.3041	-1455.9807	-1454.2912	-1452.0415	-1463.2528	-1471.8226	-1477.2630	-1481.9462	-1485.9948	-1489.8486	-1494.2758	-1498.3287	-1502.4626	-1506.7300	-1511.0521	-1516.5998	-1516.3831	-1511.5686	-1525.2812	-1530.6297	-1533.2295	-1539.5606	-1545.7385	-1549.8615	-1554.4987	-1558.5692	-1562.7315	-1568.6994	-1572.3256	-1576.1531	-1580.1973	-1585.2875	-1589.2179	-1592.4086	-1597.9059	-1601.8341	-1605.7864	-1610.1523	-1613.5947	-1618.5186	-1622.8057	-1627.0009	-1631.2968	-1634.5772	-1639.9169	-1640.7463	-1643.6022	-1650.4344	-1656.4219	-1660.4683	-1664.9983	-1669.0119	-1673.1261	-1678.1157	-1680.7374	-1676.6166	-1675.6800	-1689.3729	-1697.1221	-1701.7900	-1706.9831	-1710.3007	-1715.7696	-1718.8465	-1723.0373	-1727.7533	-1731.8303	-1736.0233	-1739.0718	-1743.4683
-1193.4082	-1198.5444	-1203.0219	-1207.5957	-1211.1103	-1216.9292	-1221.6694	-1226.2782	-1230.6397	-1234.6029	-1239.8332	-1244.1772	-1247.8034	-1252.4582	-1257.9970	-1262.4614	-1267.2956	-1271.3464	-1276.1390	-1280.4261	-1284.5272	-1288.6086	-1293.6769	-1298.0297	-1301.8135	-1306.1531	-1310.9632	-1316.0754	-1320.5769	-1325.0150	-1328.5121	-1333.9788	-1338.4979	-1342.9797	-1346.6760	-1351.3811	-1355.9723	-1359.5504	-1364.3168	-1368.4419	-1373.6022	-1377.6661	-1375.5105	-1370.7463	-1385.7282	-1394.0004	-1399.1432	-1403.3581	-1407.7962	-1400.9268	-1406.4503	-1417.7819	-1424.6098	-1428.7371	-1433.9346	-1438.1539	-1442.2943	-1447.8310	-1451.0830	-1455.8603	-1458.5783	-1463.0274	-1466.3779	-1471.2230	-1476.1535	-1480.2436	-1485.5812	-1490.2338	-1494.0088	-1498.0376	-1502.7099	-1507.5375	-1511.0346	-1515.3983	-1511.4417	-1505.7803	-1522.4560	-1530.9448	-1537.4116	-1541.8300	-1545.2023	-1549.3975	-1554.6826	-1558.8624	-1562.5740	-1566.6313	-1561.8277	-1564.3050	-1576.2713	-1582.4098	-1588.1128	-1591.4961	-1596.1858	-1600.4795	-1603.7753	-1608.2593	-1613.2336	-1616.6606	-1620.9302	-1624.6133	-1629.1784	-1633.6646	-1637.3149	-1641.6261	-1646.2896	-1651.2201	-1655.1855	-1658.2493	-1664.0092	-1667.0161	-1671.9203	-1675.8529	-1679.5010	-1683.6633	-1686.6702	-1691.7211	-1697.2293	-1700.3193	-1705.7685	-1708.5828	-1713.0297	-1719.2645	-1721.3084	-1726.3090	-1729.8914	-1734.4586	-1738.8705	-1742.3435
-1192.9574	-1196.9906	-1201.8051	-1207.2630	-1211.8193	-1215.7978	-1219.1177	-1224.8513	-1229.4251	-1233.2504	-1238.3713	-1243.1114	-1248.1338	-1252.3159	-1256.9378	-1260.5115	-1266.3830	-1265.7156	-1263.0348	-1275.3818	-1282.2228	-1288.0461	-1292.9329	-1295.8894	-1302.2249	-1305.5250	-1309.6020	-1314.1496	-1318.7912	-1324.3979	-1328.7550	-1331.3943	-1337.6159	-1341.2881	-1345.2032	-1349.4487	-1353.4535	-1358.5547	-1362.5901	-1367.3981	-1372.0966	-1376.2152	-1380.5373	-1385.5269	-1382.1020	-1377.7121	-1393.5474	-1399.9879	-1406.3212	-1410.8446	-1415.3615	-1421.2024	-1424.1327	-1428.2994	-1433.1993	-1437.8541	-1441.4628	-1444.9139	-1450.1376	-1454.6261	-1458.8431	-1460.6442	-1466.0583	-1472.4923	-1473.2320	-1468.2358	-1481.2875	-1488.4174	-1493.6542	-1497.7466	-1501.1890	-1505.7846	-1511.0084	-1514.4748	-1517.8056	-1522.5435	-1527.5615	-1530.7873	-1535.6062	-1539.4753	-1543.6617	-1547.9751	-1552.3366	-1556.6696	-1560.5541	-1565.9704	-1569.3821	-1572.9865	-1578.7682	-1583.0488	-1585.3773	-1590.3844	-1595.3148	-1598.9892	-1596.9518	-1592.8419	-1602.3659	-1613.0410	-1620.2715	-1624.8344	-1629.1259	-1633.7653	-1637.9430	-1641.9718	-1646.2261	-1650.5811	-1654.8835	-1658.3893	-1663.3461	-1666.8804	-1672.6884	-1675.4415	-1668.0030	-1679.3193	-1687.0685	-1692.3273	-1695.9578	-1700.0939	-1705.5146	-1709.8433	-1712.9990	-1717.3977	-1722.7856	-1726.1973	-1729.6529	-1733.2681	-1738.3190	-1742.7155
-1191.8588	-1196.3494	-1200.5884	-1205.4029	-1209.9482	-1214.8721	-1212.0644	-1217.6580	-1227.6744	-1233.1148	-1238.0606	-1242.6366	-1245.9235	-1252.2678	-1256.8175	-1260.4984	-1264.9803	-1268.9391	-1273.9922	-1278.9205	-1282.2600	-1287.7945	-1291.9787	-1296.0820	-1300.3078	-1295.6203	-1301.9710	-1312.3419	-1317.8305	-1322.5202	-1327.0284	-1331.7181	-1336.5370	-1339.9925	-1344.9821	-1349.7135	-1354.1253	-1356.7558	-1362.1240	-1367.2120	-1370.7945	-1375.2282	-1378.9529	-1384.6274	-1389.2669	-1391.7179	-1396.8103	-1399.1476	-1399.2920	-1407.5708	-1412.9980	-1418.5960	-1422.9903	-1427.6932	-1431.5427	-1436.2828	-1440.1410	-1444.5178	-1448.6626	-1453.4793	-1458.4033	-1461.8347	-1466.5704	-1470.6474	-1472.6083	-1466.6645	-1467.3408	-1478.4929	-1489.9602	-1496.7246	-1501.8542	-1505.5877	-1499.9284	-1491.2601	-1508.6865	-1514.8950	-1520.6877	-1528.5835	-1536.1642	-1539.1798	-1543.1102	-1548.3799	-1552.5335	-1556.1772	-1560.5869	-1564.7843	-1569.9380	-1573.5489	-1577.8688	-1582.8190	-1586.1695	-1590.2005	-1594.5423	-1597.4967	-1587.6948	-1594.5008	-1607.4605	-1614.7567	-1619.2101	-1624.8519	-1628.2964	-1633.0606	-1636.5577	-1641.5845	-1644.7796	-1648.7362	-1652.5288	-1657.7656	-1661.6982	-1665.0531	-1667.8608	-1673.1414	-1677.7656	-1681.6850	-1687.3596	-1690.1170	-1694.4369	-1697.9121	-1702.1598	-1707.7031	-1711.4956	-1716.4939	-1719.5511	-1723.8010	-1727.7052	-1732.0798	-1737.0212	-1740.3345
-1189.7076	-1195.5988	-1199.4416	-1204.9542	-1208.4973	-1207.9283	-1194.0494	-1198.7939	-1219.9777	-1230.2107	-1236.2770	-1242.1463	-1246.2234	-1250.3726	-1254.9683	-1259.9403	-1264.7264	-1268.6765	-1272.8170	-1277.4477	-1280.6712	-1285.5951	-1291.2040	-1295.4277	-1299.5747	-1299.1064	-1301.8441	-1312.0793	-1317.2724	-1322.2992	-1326.3675	-1330.7574	-1335.1146	-1339.1019	-1342.7149	-1347.9080	-1352.8976	-1356.6486	-1359.6248	-1363.7609	-1369.2910	-1374.6330	-1379.0536	-1382.7191	-1386.7655	-1392.8318	-1396.6528	-1397.4734	-1384.8047	-1379.6860	-1398.8850	-1413.6305	-1420.5918	-1425.9338	-1431.4332	-1435.9589	-1438.9132	-1443.7759	-1447.8857	-1450.7657	-1455.2695	-1457.2106	-1450.4112	-1460.6923	-1470.2382	-1477.7248	-1480.1736	-1486.0648	-1490.6342	-1494.5449	-1500.3836	-1504.3315	-1504.8808	-1496.6918	-1509.8879	-1520.3638	-1524.4671	-1528.6339	-1534.0239	-1537.9171	-1542.5128	-1545.9442	-1550.8616	-1555.3172	-1559.8297	-1564.1409	-1568.1501	-1571.7588	-1576.9453	-1580.7860	-1585.6836	-1589.7191	-1594.0281	-1597.4923	-1601.1141	-1605.5435	-1599.6545	-1601.3374	-1613.2423	-1617.9277	-1625.1451	-1630.6906	-1635.7524	-1639.8556	-1645.0838	-1648.7143	-1652.1283	-1656.9209	-1660.5471	-1665.0903	-1668.8127	-1673.3362	-1676.7983	-1682.3328	-1685.6767	-1686.1537	-1693.7475	-1699.0588	-1702.8076	-1706.2324	-1710.1563	-1715.4260	-1720.3412	-1723.5581	-1727.1821	-1731.2570	-1735.9621	-1740.7087
-1189.8651	-1194.9466	-1198.4722	-1203.9104	-1209.1516	-1213.2089	-1217.6777	-1220.5708	-1227.1185	-1231.3334	-1235.6117	-1239.9339	-1245.3414	-1249.9962	-1253.7887	-1258.0933	-1263.1836	-1268.1360	-1272.4603	-1269.5365	-1267.6085	-1281.2052	-1288.6436	-1293.7776	-1297.7671	-1304.4505	-1307.2079	-1311.2040	-1315.9156	-1321.1656	-1319.5681	-1316.8522	-1329.2693	-1337.4977	-1343.5093	-1346.8029	-1350.9981	-1356.3903	-1360.9597	-1365.6802	-1369.1006	-1373.5300	-1378.2132	-1381.8657	-1387.7788	-1391.2977	-1395.9569	-1400.4869	-1403.3646	-1407.8750	-1403.3143	-1398.8499	-1395.7905	-1401.9859	-1422.6096	-1431.9891	-1435.8954	-1442.3731	-1446.4108	-1451.8599	-1456.4972	-1461.1278	-1464.8875	-1468.7917	-1474.1949	-1476.8560	-1467.6821	-1480.7864	-1488.9295	-1495.0220	-1498.5213	-1503.3730	-1506.5834	-1511.6343	-1515.8229	-1520.0969	-1524.9661	-1529.4042	-1532.7984	-1529.1284	-1514.8731	-1519.3397	-1540.7796	-1550.9644	-1556.3961	-1562.4295	-1567.2659	-1571.7084	-1575.9255	-1580.7028	-1584.0555	-1588.4192	-1592.1701	-1597.3720	-1601.7072	-1602.0639	-1607.3030	-1613.2248	-1618.1247	-1621.9479	-1621.5780	-1626.6267	-1630.3470	-1624.1297	-1635.7327	-1646.0117	-1650.8874	-1656.8180	-1660.0613	-1663.8822	-1668.7493	-1673.1786	-1677.4592	-1677.5839	-1661.0548	-1662.3175	-1683.8690	-1695.6887	-1702.4509	-1706.1427	-1711.8129	-1714.2705	-1718.7721	-1723.2911	-1726.9545	-1731.2635	-1735.1808	-1739.8399
-1189.5741	-1194.0516	-1198.9952	-1203.2889	-1207.4928	-1212.5502	-1217.3647	-1221.5184	-1225.7661	-1231.2327	-1235.2857	-1236.1851	-1225.7573	-1221.9385	-1242.8685	-1255.4738	-1260.7457	-1266.3415	-1272.1276	-1276.4388	-1280.5114	-1284.9539	-1289.6809	-1293.0904	-1297.4760	-1302.9821	-1306.8096	-1311.5213	-1316.0666	-1319.6731	-1316.4168	-1314.3618	-1322.5224	-1316.4146	-1314.6967	-1334.6638	-1347.7286	-1354.1647	-1359.4672	-1363.5180	-1355.5018	-1355.5937	-1370.7551	-1380.1937	-1385.4678	-1391.5954	-1394.3506	-1399.2942	-1404.2947	-1407.8443	-1411.7594	-1416.0750	-1421.5876	-1425.3976	-1428.8137	-1433.8711	-1437.3201	-1442.7430	-1446.7084	-1445.5266	-1450.4725	-1458.3398	-1460.0599	-1464.8810	-1471.8511	-1474.0745	-1459.6419	-1458.9832	-1480.1495	-1491.3126	-1498.5497	-1502.7318	-1506.6403	-1504.4037	-1509.3080	-1517.3154	-1523.4780	-1527.9445	-1532.6343	-1537.5538	-1540.1756	-1545.3927	-1549.4435	-1554.3981	-1558.1424	-1560.9655	-1567.1937	-1570.4917	-1575.1508	-1578.6413	-1582.4295	-1573.6561	-1575.9408	-1592.1701	-1598.8623	-1604.7513	-1608.8174	-1613.0498	-1616.4068	-1616.4265	-1600.8056	-1600.1206	-1611.5770	-1608.9640	-1613.0935	-1631.7782	-1646.4384	-1654.3539	-1661.1599	-1663.6634	-1667.3706	-1672.7497	-1676.2118	-1680.0524	-1683.5867	-1688.9549	-1693.3974	-1696.9755	-1701.1181	-1704.8472	-1710.1147	-1713.6512	-1718.0586	-1721.5032	-1724.9828	-1730.6420	-1735.1895	-1738.8923
-1188.1188	-1191.6005	-1197.1460	-1201.9627	-1206.9085	-1211.3225	-1215.8525	-1221.0938	-1226.0878	-1229.6505	-1234.0098	-1239.0563	-1243.4222	-1247.7159	-1252.5741	-1256.6446	-1261.8880	-1265.8359	-1270.2171	-1274.4692	-1279.4435	-1283.9713	-1287.7332	-1292.8191	-1297.3535	-1301.5071	-1305.7307	-1309.9741	-1315.3116	-1319.5659	-1323.7567	-1328.3064	-1332.3747	-1337.5525	-1341.0605	-1344.7173	-1349.3524	-1354.8212	-1358.9355	-1363.2051	-1366.7503	-1372.6787	-1376.5850	-1381.0056	-1385.3234	-1390.0088	-1394.0420	-1397.9483	-1401.4914	-1407.4329	-1412.2912	-1415.0989	-1419.4954	-1424.1787	-1428.2863	-1432.4180	-1436.6701	-1441.2045	-1446.1613	-1450.0370	-1454.2737	-1458.2851	-1462.8020	-1467.7084	-1471.9364	-1475.2716	-1480.3946	-1484.5067	-1489.0389	-1493.4639	-1498.0158	-1502.1256	-1505.8744	-1509.5728	-1506.8504	-1513.4288	-1522.3247	-1525.1543	-1530.5859	-1536.7376	-1540.2850	-1543.7142	-1547.8875	-1552.5160	-1557.7660	-1554.4703	-1537.3700	-1539.1623	-1560.3440	-1574.4549	-1581.7248	-1584.8805	-1591.6930	-1596.1793	-1598.5909	-1603.3813	-1607.8435	-1612.1372	-1616.1923	-1620.5495	-1624.6593	-1629.3753	-1631.3952	-1628.0404	-1635.7020	-1644.2850	-1650.7452	-1654.1241	-1658.0830	-1663.1426	-1666.6418	-1670.7604	-1674.8418	-1679.0655	-1682.8427	-1686.4295	-1690.3205	-1694.6382	-1700.1596	-1704.7487	-1708.2699	-1713.4783	-1717.4590	-1721.2931	-1725.0331	-1729.2524	-1734.6293	-1738.0804
-1187.9897	-1192.9617	-1196.3888	-1200.9910	-1206.4117	-1211.2788	-1215.8788	-1219.4240	-1225.3722	-1229.4886	-1233.7866	-1237.5529	-1229.4360	-1239.7347	-1249.8452	-1255.4585	-1260.5815	-1265.2079	-1269.4950	-1273.9112	-1278.7344	-1283.3367	-1287.1008	-1291.4513	-1296.5044	-1301.1285	-1305.1289	-1309.2978	-1313.1670	-1318.2835	-1322.8726	-1327.2056	-1330.6983	-1334.8848	-1340.6600	-1345.3454	-1348.7112	-1352.9304	-1357.5283	-1362.4632	-1366.8116	-1369.5230	-1374.1274	-1379.7145	-1383.1349	-1387.9363	-1392.6239	-1397.6201	-1401.7365	-1402.9204	-1396.8607	-1409.5863	-1418.1496	-1423.1501	-1426.8989	-1431.6390	-1436.1296	-1439.9899	-1430.1005	-1437.1187	-1450.3390	-1456.5103	-1461.1891	-1466.1853	-1471.6541	-1475.2935	-1478.5082	-1483.2724	-1487.9315	-1493.0349	-1497.1076	-1500.4383	-1504.6685	-1509.2248	-1509.4546	-1516.1205	-1521.1210	-1526.5417	-1531.0433	-1535.2210	-1539.9917	-1543.8455	-1549.0933	-1551.2643	-1555.3741	-1560.6569	-1564.9243	-1568.9073	-1572.9383	-1576.6936	-1582.2544	-1584.6967	-1589.0166	-1594.0609	-1598.4333	-1602.7467	-1604.1757	-1588.8919	-1588.4432	-1610.4762	-1621.3045	-1627.0337	-1624.3836	-1616.0720	-1632.9490	-1643.1076	-1649.2615	-1643.3418	-1645.1363	-1657.8357	-1665.3047	-1670.1827	-1673.2968	-1678.5840	-1678.7241	-1677.0368	-1689.2657	-1694.2815	-1688.6726	-1694.3844	-1705.3855	-1711.6991	-1715.8286	-1720.4900	-1725.0922	-1729.0401	-1732.2024	-1736.8484
-1184.6917	-1186.2958	-1189.1889	-1193.2397	-1197.9623	-1203.7222	-1210.3246	-1215.5768	-1222.1683	-1223.7637	-1216.0823	-1211.3444	-1213.6598	-1218.2970	-1222.6913	-1227.7181	-1235.0821	-1241.2447	-1245.6631	-1241.9100	-1240.5926	-1243.5163	-1247.5014	-1253.8544	-1257.5615	-1262.1857	-1265.7900	-1271.1122	-1276.2506	-1279.5442	-1285.2231	-1289.1010	-1293.7601	-1297.4957	-1298.8876	-1303.2425	-1307.2123	-1312.3025	-1316.5787	-1320.8570	-1319.0429	-1319.2595	-1324.3126	-1327.3588	-1331.4358	-1335.5150	-1334.6047	-1337.6028	-1349.3699	-1353.2149	-1346.2623	-1347.0546	-1350.6873	-1355.6069	-1359.4125	-1363.0716	-1367.9342	-1373.1952	-1377.4429	-1381.4674	-1383.6536	-1377.9331	-1382.4828	-1395.4448	-1403.1699	-1408.9823	-1413.3066	-1417.7097	-1421.6664	-1426.8551	-1431.3588	-1433.9696	-1428.6036	-1429.8029	-1434.9172	-1438.9526	-1443.3382	-1448.7961	-1451.8840	-1457.2171	-1461.1957	-1466.5814	-1471.5403	-1466.4873	-1458.2982	-1458.7009	-1461.3029	-1466.4588	-1469.9187	-1473.9892	-1476.8232	-1481.9615	-1487.2072	-1490.4504	-1493.4989	-1497.9326	-1501.2305	-1507.8395	-1512.2798	-1516.4422	-1519.6920	-1522.0227	-1525.8677	-1529.7937	-1531.5182	-1531.5817	-1535.9935	-1536.7244	-1543.7449	-1548.2552	-1553.5161	-1557.3874	-1561.2522	-1566.6357	-1572.7129	-1577.4902	-1581.3856	-1586.6662	-1590.2005	-1593.5357	-1598.2955	-1602.0530	-1607.0141	-1612.6821	-1613.2883	-1617.6017	-1621.8953	-1625.0532
-1063.8387	-1068.5613	-1073.0104	-1078.3041	-1081.3635	-1081.9457	-1083.9809	-1088.4299	-1092.3997	-1093.6427	-1098.1137	-1102.8144	-1108.6859	-1111.0625	-1114.0497	-1118.6038	-1123.1469	-1126.0838	-1127.3443	-1127.5894	-1135.5706	-1137.0674	-1137.8575	-1141.1357	-1145.6592	-1150.3446	-1155.1809	-1160.1902	-1164.6305	-1169.4932	-1171.7888	-1177.4262	-1184.1796	-1189.0423	-1194.4389	-1198.1877	-1200.0566	-1205.4423	-1211.8062	-1215.2113	-1219.1220	-1224.0854	-1228.0770	-1233.2723	-1236.4652	-1241.3673	-1246.6107	-1251.4012	-1254.7341	-1253.0600	-1250.5652	-1263.8379	-1275.7210	-1282.9143	-1287.2955	-1291.8803	-1296.8458	-1300.1284	-1303.8728	-1308.2146	-1312.1690	-1314.5325	-1322.0738	-1327.8359	-1332.5848	-1336.2897	-1341.1086	-1346.2580	-1350.3831	-1353.6439	-1355.0116	-1361.9598	-1368.7899	-1372.2082	-1375.6046	-1380.0208	-1385.0214	-1389.1553	-1393.8582	-1398.5786	-1402.6162	-1405.4896	-1409.0786	-1413.4095	-1419.5217	-1424.0955	-1427.1899	-1431.8359	-1436.1821	-1440.1453	-1445.5288	-1448.0827	-1453.0373	-1458.4536	-1461.7537	-1465.6207	-1470.6912	-1475.0965	-1479.3573	-1482.8347	-1486.6097	-1492.7395	-1495.6194	-1499.5586	-1504.4453	-1496.5473	-1491.2776	-1493.2166	-1495.3897	-1499.5148	-1504.6335	-1508.6318	-1512.9298	-1516.7770	-1521.4318	-1524.8698	-1519.6898	-1531.0827	-1539.5737	-1543.8215	-1549.9293	-1553.3695	-1558.5757	-1561.5389	-1565.5393	-1570.2838	-1575.1771	-1579.8712
-1190.2590	-1195.5484	-1199.9034	-1204.1205	-1209.0247	-1214.6380	-1218.8419	-1222.8971	-1227.0091	-1232.0227	-1237.7367	-1240.2993	-1245.4618	-1249.7117	-1254.6028	-1258.7914	-1262.6802	-1268.4358	-1272.5806	-1277.3492	-1280.5289	-1286.0153	-1290.8167	-1295.2570	-1298.8679	-1302.9317	-1308.6501	-1312.8715	-1316.5940	-1321.0409	-1326.2099	-1329.8295	-1334.5106	-1338.9946	-1343.4502	-1348.2560	-1352.5387	-1356.4757	-1361.0035	-1365.3519	-1370.1161	-1373.4512	-1377.5764	-1382.7563	-1387.5358	-1391.4706	-1394.9458	-1399.3029	-1405.0081	-1408.1376	-1412.9411	-1416.5455	-1421.5088	-1426.2817	-1429.9517	-1435.0376	-1439.8958	-1444.8110	-1447.2270	-1451.8599	-1456.5956	-1460.7033	-1464.0144	-1468.6713	-1472.6236	-1473.6368	-1440.1628	-1377.2306	-1349.5121	-1355.2896	-1381.8657	-1408.6322	-1435.2586	-1461.7559	-1488.1154	-1512.0501	-1524.0776	-1531.6998	-1535.8381	-1538.8516	-1542.2961	-1547.3054	-1551.5422	-1556.1028	-1559.2935	-1563.8345	-1568.4543	-1572.5072	-1576.5295	-1581.0770	-1585.7537	-1589.2398	-1593.6429	-1596.7483	-1601.4008	-1606.0643	-1609.8043	-1613.0498	-1618.0153	-1622.2849	-1626.1321	-1629.5110	-1633.9404	-1638.6498	-1643.0179	-1646.7185	-1650.5942	-1655.2271	-1659.1684	-1663.2432	-1668.0643	-1671.6752	-1675.4918	-1680.1290	-1683.8603	-1687.2720	-1692.5527	-1695.9688	-1700.2997	-1704.4204	-1707.9700	-1712.6905	-1715.9424	-1720.4615	-1724.9324	-1729.4909	-1732.1827	-1736.5661
-1185.3854	-1190.4735	-1196.2969	-1200.8641	-1204.5472	-1209.8979	-1214.7824	-1220.1900	-1223.6061	-1227.4577	-1233.3642	-1237.5025	-1241.8509	-1245.6741	-1249.9174	-1255.9924	-1259.6996	-1264.0371	-1268.0681	-1273.0752	-1278.0954	-1282.3716	-1285.5754	-1277.6162	-1267.8493	-1282.4197	-1299.4456	-1306.6039	-1312.2894	-1315.9178	-1306.3304	-1318.6380	-1329.0111	-1334.4952	-1339.5483	-1343.9645	-1347.2953	-1353.4469	-1357.1541	-1360.9007	-1366.1660	-1370.0898	-1373.6175	-1378.4255	-1383.6645	-1386.8005	-1390.9585	-1394.7335	-1400.0339	-1404.5508	-1409.2580	-1413.3132	-1416.3244	-1421.7845	-1426.6494	-1430.4835	-1434.8516	-1439.2590	-1443.7365	-1448.1681	-1452.0875	-1456.9151	-1461.6968	-1465.2530	-1470.0675	-1474.5844	-1478.1450	-1472.4288	-1454.4663	-1460.9243	-1484.4651	-1497.1535	-1503.9507	-1507.3822	-1511.7721	-1504.3994	-1496.2059	-1508.6383	-1525.6182	-1534.1749	-1538.8100	-1542.7885	-1546.8590	-1551.3934	-1555.8490	-1559.6503	-1563.7360	-1568.0888	-1572.3518	-1575.9299	-1579.9719	-1584.3772	-1589.6228	-1592.8201	-1596.9605	-1601.5759	-1605.9221	-1610.5046	-1613.9645	-1618.3764	-1622.9501	-1627.0709	-1630.3601	-1634.7304	-1638.6345	-1643.0748	-1646.9483	-1649.8261	-1654.5312	-1660.5996	-1660.7331	-1654.6209	-1667.4472	-1676.4175	-1681.6522	-1684.6700	-1689.1913	-1693.6644	-1697.6714	-1702.1948	-1705.9480	-1710.5436	-1715.1940	-1719.2163	-1722.6937	-1717.6034	-1727.3178	-1733.7846
-1184.4554	-1189.5281	-1193.6051	-1198.8420	-1203.7813	-1208.1012	-1212.1826	-1216.9030	-1222.7285	-1226.7071	-1231.2174	-1235.2375	-1240.1571	-1245.6894	-1248.9239	-1253.1541	-1257.7322	-1263.4987	-1267.7442	-1271.1122	-1276.5635	-1280.9601	-1285.1356	-1289.5233	-1294.2919	-1299.2486	-1302.9208	-1307.0153	-1311.8845	-1316.6969	-1321.0168	-1324.7677	-1328.8097	-1334.0029	-1338.3731	-1342.3998	-1345.3804	-1350.1709	-1356.2787	-1360.1588	-1364.3956	-1368.6608	-1373.5387	-1377.2394	-1381.2682	-1385.6976	-1390.6237	-1394.7270	-1398.1190	-1403.3778	-1408.1573	-1413.3985	-1416.9438	-1420.3030	-1424.7017	-1429.3849	-1434.1272	-1438.0598	-1441.4562	-1446.3560	-1451.2734	-1455.7728	-1458.6856	-1464.1544	-1467.8703	-1472.3478	-1476.3789	-1480.6179	-1485.5527	-1489.0301	-1494.0985	-1498.3725	-1502.6815	-1506.2748	-1510.7501	-1515.1313	-1519.7336	-1523.5174	-1528.2837	-1531.9537	-1536.9498	-1541.3245	-1539.6678	-1545.4693	-1552.7283	-1557.3853	-1562.1538	-1566.4497	-1569.4959	-1575.1442	-1579.1206	-1582.8496	-1588.2944	-1591.1634	-1596.5404	-1600.4095	-1603.8365	-1608.1827	-1613.5093	-1617.4047	-1621.8406	-1624.5718	-1629.8852	-1633.4523	-1637.5600	-1641.9697	-1647.1059	-1650.9662	-1654.3998	-1658.7876	-1663.9720	-1666.3792	-1670.3381	-1676.4744	-1679.8621	-1684.3045	-1688.3991	-1691.4125	-1696.4743	-1701.6455	-1704.8494	-1709.0861	-1712.7123	-1717.0695	-1721.5557	-1723.3283	-1708.2173	-1720.4068
-1183.4006	-1189.0423	-1193.6970	-1197.9710	-1202.1268	-1206.3767	-1211.9265	-1216.1896	-1220.1966	-1225.2343	-1230.6944	-1234.6357	-1239.4043	-1243.3894	-1241.9866	-1235.8809	-1248.5672	-1259.2860	-1265.3435	-1271.3704	-1274.5283	-1278.5462	-1284.6344	-1288.9718	-1292.4777	-1297.0931	-1301.8660	-1306.3325	-1310.8735	-1313.9679	-1318.1719	-1324.3957	-1327.3895	-1332.1339	-1336.3357	-1340.7016	-1346.8401	-1349.0088	-1354.0575	-1358.1870	-1363.3845	-1366.5730	-1359.7386	-1361.8614	-1376.4253	-1383.7411	-1388.3849	-1394.5191	-1398.6048	-1402.0888	-1406.9164	-1406.5816	-1393.1995	-1404.0956	-1419.5523	-1427.2884	-1432.9126	-1434.1797	-1427.7545	-1440.4189	-1448.5248	-1454.1074	-1457.4075	-1456.2871	-1454.5648	-1466.6383	-1466.8965	-1466.7608	-1481.4582	-1487.6514	-1492.7351	-1497.0419	-1501.4866	-1505.9050	-1511.0106	-1514.5799	-1518.4140	-1523.6793	-1526.9969	-1531.4613	-1535.1378	-1539.8648	-1545.4890	-1547.9707	-1551.7282	-1556.2845	-1561.4820	-1565.4955	-1567.6467	-1559.2366	-1570.3450	-1579.9303	-1585.9025	-1590.8111	-1594.7656	-1599.9105	-1603.2216	-1606.8762	-1612.4195	-1615.3607	-1620.4838	-1623.8605	-1628.3665	-1633.3407	-1636.8772	-1640.8229	-1644.8890	-1649.4343	-1654.1285	-1656.9231	-1660.8907	-1665.5170	-1670.0208	-1674.7455	-1678.4527	-1683.1534	-1687.8016	-1691.4037	-1694.8790	-1698.0128	-1703.0461	-1707.8825	-1711.6882	-1715.0824	-1718.7414	-1712.6007	-1709.4341	-1720.3696
-1182.7003	-1187.1165	-1191.9551	-1195.9139	-1201.4090	-1205.5823	-1210.2371	-1215.5593	-1219.4766	-1224.5471	-1229.0749	-1234.6598	-1238.6055	-1243.5973	-1246.3897	-1251.1648	-1256.1610	-1260.3846	-1264.8687	-1269.0463	-1274.5436	-1278.6885	-1282.6342	-1287.7157	-1292.4055	-1296.5263	-1300.9184	-1304.5490	-1308.9849	-1314.2634	-1317.6817	-1323.3343	-1326.6651	-1331.0003	-1336.5173	-1338.7933	-1344.6823	-1349.7047	-1353.4797	-1356.9352	-1362.5792	-1366.7919	-1370.8973	-1374.5192	-1378.7275	-1384.2685	-1388.9211	-1392.8668	-1396.0225	-1401.2857	-1405.7172	-1410.0590	-1412.0811	-1417.0007	-1422.6774	-1427.4657	-1431.3917	-1435.7663	-1440.6399	-1444.3558	-1447.9689	-1452.6631	-1457.4382	-1461.8653	-1465.0517	-1469.0258	-1474.0220	-1478.7599	-1483.2680	-1487.3013	-1492.0086	-1496.3372	-1499.8584	-1504.8918	-1508.1634	-1513.1421	-1518.0551	-1521.0838	-1525.4847	-1529.7762	-1535.1597	-1538.6459	-1542.2546	-1546.8262	-1545.7757	-1552.4044	-1558.2365	-1564.5917	-1568.4477	-1571.0628	-1574.2120	-1580.1885	-1585.2525	-1589.8482	-1593.6495	-1597.7943	-1602.4644	-1606.6158	-1610.5462	-1614.8640	-1618.5471	-1623.6548	-1628.0710	-1631.6907	-1635.7239	-1640.5209	-1643.6722	-1647.5020	-1651.9817	-1655.9099	-1661.6238	-1665.0158	-1669.1716	-1672.4433	-1677.3760	-1680.9453	-1686.4448	-1690.0885	-1694.6667	-1699.3608	-1700.8183	-1704.5320	-1710.1322	-1714.4368	-1718.7480	-1722.1816	-1727.2347	-1732.4978
-1182.4595	-1185.5167	-1190.2503	-1194.6928	-1200.1726	-1204.9914	-1208.4863	-1213.3862	-1218.0366	-1224.2539	-1228.2543	-1231.4187	-1237.0627	-1241.6233	-1245.0482	-1249.0508	-1254.3468	-1258.6514	-1259.6143	-1263.9802	-1271.5805	-1277.4892	-1281.4722	-1286.4486	-1290.3987	-1294.7821	-1300.6711	-1303.9406	-1308.3984	-1313.1932	-1316.9551	-1321.7280	-1322.9579	-1313.4274	-1325.2317	-1337.4474	-1341.8199	-1347.9124	-1352.5168	-1357.1847	-1361.9336	-1362.1415	-1353.5979	-1351.2235	-1356.4582	-1375.8563	-1386.0412	-1391.4575	-1396.2151	-1400.2046	-1404.6733	-1408.9210	-1413.2716	-1417.3092	-1421.9705	-1426.6341	-1431.4901	-1435.0026	-1438.7885	-1442.9137	-1447.5575	-1451.5842	-1456.1032	-1461.0009	-1464.7300	-1469.8246	-1472.4507	-1478.1865	-1481.9222	-1486.1961	-1490.0828	-1494.7419	-1499.6374	-1504.0711	-1507.8724	-1511.3892	-1516.5888	-1520.8584	-1524.8523	-1529.7193	-1532.6693	-1538.3023	-1541.8891	-1544.3686	-1550.2160	-1555.0152	-1558.6589	-1563.3027	-1567.3907	-1571.8923	-1575.3521	-1581.4337	-1583.8016	-1588.3929	-1593.3300	-1596.8818	-1601.7532	-1605.3662	-1609.9597	-1614.9821	-1617.9255	-1622.4731	-1626.5041	-1629.9750	-1635.1046	-1638.5907	-1643.7532	-1648.3226	-1651.4980	-1654.3364	-1660.3458	-1665.2500	-1669.2614	-1671.6664	-1676.7567	-1680.6980	-1685.4972	-1688.9615	-1692.4411	-1697.6539	-1702.0832	-1705.2980	-1706.4185	-1711.6772	-1718.3431	-1722.3304	-1725.7443	-1730.9703
-1179.7306	-1185.4708	-1191.0053	-1194.2485	-1198.0060	-1204.1992	-1208.4798	-1213.1302	-1217.2881	-1221.5731	-1227.8232	-1230.3092	-1235.7584	-1239.5268	-1244.7090	-1249.7861	-1253.3160	-1258.3975	-1263.3871	-1267.8690	-1271.7468	-1276.1193	-1280.8485	-1285.4660	-1276.9881	-1283.2973	-1295.5962	-1302.8705	-1294.9331	-1291.8365	-1309.0287	-1319.4849	-1324.5205	-1327.1619	-1332.4053	-1339.1062	-1343.0191	-1346.9429	-1351.3592	-1355.6003	-1360.5790	-1364.6647	-1369.1685	-1373.5037	-1377.5085	-1381.7869	-1385.7282	-1389.7024	-1395.2631	-1399.6509	-1403.5069	-1407.6999	-1412.5232	-1417.3771	-1421.5088	-1424.8352	-1430.2581	-1434.0462	-1437.9897	-1442.4410	-1446.0694	-1449.0369	-1454.9631	-1459.7951	-1463.1171	-1467.6428	-1472.3675	-1476.5124	-1480.7251	-1485.5987	-1490.0324	-1492.9802	-1498.2477	-1502.3598	-1507.0802	-1511.7065	-1514.5514	-1519.2762	-1523.4298	-1527.7760	-1531.9712	-1536.4268	-1541.0444	-1545.2417	-1549.6974	-1553.5730	-1557.6697	-1563.0314	-1566.5197	-1569.8767	-1575.2011	-1578.9652	-1583.6966	-1587.5153	-1592.4502	-1596.8336	-1600.3044	-1604.9964	-1607.8698	-1612.4020	-1617.2931	-1621.5058	-1624.9153	-1625.8345	-1618.0744	-1619.2145	-1620.5385	-1639.6259	-1649.1017	-1655.5838	-1656.8946	-1642.6371	-1656.1528	-1668.4823	-1675.9054	-1679.8774	-1684.4293	-1689.3510	-1691.9224	-1697.1374	-1700.7986	-1704.9150	-1708.3071	-1705.6853	-1713.3120	-1721.4222	-1726.0004	-1730.3225
-1179.7503	-1184.9324	-1189.4406	-1193.8283	-1198.8858	-1203.6018	-1207.8692	-1213.0601	-1217.7477	-1221.5446	-1226.0331	-1230.8957	-1236.4390	-1239.5575	-1243.1311	-1247.5692	-1252.4975	-1257.5134	-1261.2337	-1266.7573	-1271.4755	-1276.2550	-1279.3275	-1283.3826	-1285.0108	-1291.9897	-1296.8808	-1302.1746	-1306.6324	-1311.1864	-1315.0840	-1318.9334	-1324.1462	-1328.5187	-1333.6549	-1336.8259	-1336.0009	-1325.0041	-1323.7436	-1345.1178	-1355.3727	-1362.6251	-1368.7352	-1371.6108	-1376.4778	-1381.5637	-1385.2074	-1389.6148	-1392.9172	-1397.6244	-1403.4960	-1407.4110	-1410.9103	-1415.0573	-1421.0864	-1424.2443	-1427.9602	-1433.3372	-1437.3091	-1442.2396	-1446.3560	-1449.3323	-1454.5714	-1459.2655	-1464.0450	-1466.8112	-1470.8729	-1476.3658	-1480.4909	-1485.7147	-1488.8551	-1493.4091	-1497.8823	-1501.1605	-1506.0691	-1510.7501	-1509.8047	-1516.5057	-1522.3159	-1527.4915	-1532.4877	-1535.3720	-1539.2739	-1543.7120	-1549.2225	-1553.3586	-1556.2735	-1560.7817	-1565.7012	-1569.8964	-1573.7327	-1577.6828	-1582.7227	-1586.6903	-1591.0649	-1594.3410	-1599.6939	-1602.3637	-1598.2342	-1599.2606	-1611.0561	-1619.2386	-1624.6615	-1624.4711	-1623.4951	-1631.1479	-1639.6587	-1644.9459	-1649.4847	-1653.6164	-1659.1071	-1662.6020	-1666.7666	-1670.8064	-1675.1526	-1677.6693	-1683.4138	-1686.4317	-1691.5044	-1695.9338	-1699.8751	-1703.7530	-1706.8518	-1711.5656	-1716.0737	-1719.4920	-1724.4554	-1729.1692
-1178.5948	-1184.6808	-1187.8146	-1192.4847	-1197.5618	-1202.3982	-1206.9873	-1211.3225	-1215.9401	-1220.3935	-1225.5866	-1230.1604	-1233.3621	-1239.1942	-1243.4572	-1246.7595	-1251.4931	-1256.1763	-1261.1002	-1265.5908	-1269.5978	-1273.5085	-1278.5506	-1283.9823	-1287.4421	-1292.1210	-1296.7342	-1300.7324	-1305.0239	-1308.9543	-1314.1824	-1319.6469	-1323.0564	-1327.0240	-1332.2740	-1336.5567	-1340.6031	-1344.3497	-1349.1270	-1354.3551	-1358.2067	-1362.5573	-1366.8269	-1371.5210	-1375.9920	-1380.5636	-1384.0541	-1388.6016	-1393.5846	-1397.3465	-1401.3360	-1406.9843	-1410.3588	-1415.0114	-1419.0228	-1422.2047	-1427.9121	-1431.9935	-1435.7532	-1440.3270	-1444.7038	-1448.8093	-1452.5580	-1458.1078	-1462.1476	-1466.4982	-1471.1508	-1475.2147	-1478.7796	-1483.4015	-1488.2314	-1491.4177	-1484.8721	-1484.5395	-1497.7072	-1502.8828	-1489.9274	-1505.1500	-1518.5737	-1524.9442	-1530.8026	-1534.8511	-1539.7444	-1543.8433	-1547.7190	-1551.8048	-1556.8972	-1560.6810	-1563.4318	-1568.5155	-1573.6386	-1577.4552	-1581.4884	-1584.5938	-1589.3186	-1593.8924	-1598.2889	-1598.5734	-1597.5011	-1607.8457	-1612.3341	-1617.8161	-1611.1043	-1614.6911	-1628.8370	-1635.3541	-1640.6894	-1645.2107	-1650.1828	-1652.6907	-1656.9734	-1661.3437	-1665.6592	-1669.6422	-1672.8307	-1678.0479	-1682.1905	-1686.1056	-1690.4934	-1694.2749	-1698.6912	-1703.1599	-1707.3157	-1712.5832	-1715.8483	-1714.6907	-1713.8306	-1724.6589
-1177.1220	-1182.6171	-1187.5542	-1191.4999	-1195.9227	-1200.3586	-1206.3592	-1210.5675	-1215.4718	-1219.5860	-1223.9497	-1228.7379	-1233.1695	-1236.5156	-1241.4614	-1246.7530	-1250.3354	-1254.4846	-1259.9775	-1265.9913	-1269.1776	-1273.1978	-1277.5636	-1282.4263	-1287.2386	-1290.4840	-1295.4320	-1299.2180	-1302.6932	-1307.9826	-1313.2589	-1317.9071	-1323.0192	-1327.2275	-1330.8056	-1326.5776	-1334.6003	-1342.9338	-1345.9166	-1348.8184	-1356.6354	-1361.7257	-1366.0259	-1370.4159	-1374.1055	-1379.2833	-1383.9600	-1386.5970	-1390.2123	-1397.0554	-1401.0384	-1405.0213	-1409.3850	-1413.3591	-1417.4777	-1419.2875	-1406.0783	-1414.1207	-1431.4464	-1439.1365	-1444.1348	-1447.7457	-1452.9038	-1456.8342	-1461.0403	-1465.2355	-1469.6058	-1473.4027	-1478.3222	-1482.4868	-1486.9818	-1491.7503	-1494.4574	-1499.6593	-1504.2615	-1508.4326	-1512.8685	-1515.9082	-1521.7929	-1525.3512	-1530.3299	-1534.1574	-1538.5146	-1543.3291	-1545.9661	-1550.9338	-1554.4703	-1559.0638	-1564.2612	-1567.8940	-1572.0542	-1577.0700	-1580.6131	-1584.5982	-1589.0647	-1592.5224	-1598.4465	-1602.2696	-1605.8521	-1610.3733	-1614.1068	-1618.9650	-1622.1908	-1626.4844	-1631.4937	-1635.4613	-1640.0526	-1643.7707	-1648.5064	-1652.7038	-1655.9317	-1657.1660	-1663.4271	-1668.6639	-1673.0320	-1676.1396	-1680.5448	-1684.1776	-1688.2809	-1692.8240	-1692.2791	-1697.0455	-1705.1251	-1709.1036	-1715.0758	-1718.4766	-1722.6368	-1727.6658
-1177.1001	-1181.0283	-1185.6043	-1190.6289	-1195.3449	-1200.4155	-1204.4312	-1209.1079	-1212.9485	-1218.5706	-1222.8008	-1226.6896	-1232.8981	-1234.7320	-1238.3298	-1243.9518	-1250.0400	-1254.6969	-1259.1635	-1262.6102	-1267.5429	-1272.8148	-1277.4280	-1280.5815	-1285.3500	-1289.9457	-1295.1388	-1298.5593	-1302.6494	-1307.8622	-1311.8233	-1316.0425	-1320.3253	-1325.2973	-1328.2845	-1312.6155	-1320.1589	-1338.1193	-1346.3718	-1351.2869	-1355.0269	-1361.4740	-1365.7721	-1369.1203	-1373.5431	-1377.5654	-1377.0227	-1384.1723	-1390.0635	-1395.2938	-1398.6968	-1403.4872	-1408.0325	-1411.9695	-1417.8695	-1415.7161	-1417.1035	-1426.1876	-1433.3984	-1439.5063	-1444.2158	-1446.9885	-1452.1181	-1454.8011	-1460.1124	-1464.7803	-1468.3824	-1473.2363	-1477.7270	-1482.3861	-1485.6425	-1491.0435	-1494.4333	-1498.9043	-1502.6377	-1506.6403	-1511.6189	-1516.2146	-1520.3179	-1523.8675	-1528.9512	-1532.9604	-1537.0855	-1540.8430	-1545.5262	-1550.3145	-1554.0895	-1557.6938	-1562.9745	-1566.8633	-1570.6777	-1574.4593	-1579.0987	-1583.2567	-1588.1500	-1591.4414	-1595.2755	-1599.9346	-1604.1057	-1609.1719	-1611.8002	-1617.5097	-1615.2798	-1607.8588	-1622.3746	-1632.4194	-1638.9081	-1643.1339	-1646.9417	-1650.4257	-1655.7610	-1660.4267	-1662.2825	-1664.4578	-1669.2592	-1676.2577	-1679.6038	-1684.0835	-1688.6354	-1693.5593	-1697.5029	-1695.9797	-1689.1606	-1702.2714	-1712.2703	-1717.3014	-1723.1795	-1726.3527
-1176.7631	-1181.5776	-1185.7006	-1189.9614	-1194.1566	-1198.3802	-1203.4333	-1207.9633	-1212.7450	-1216.6776	-1219.8136	-1226.2847	-1231.6288	-1236.0188	-1240.8552	-1245.5493	-1248.7510	-1253.7778	-1258.8308	-1263.4112	-1266.9126	-1271.2676	-1277.0953	-1280.9382	-1284.6213	-1289.0156	-1292.8782	-1299.0539	-1302.8661	-1305.8183	-1312.1909	-1316.4561	-1320.1392	-1323.8902	-1326.7154	-1313.9351	-1311.8014	-1328.6281	-1342.2225	-1350.4378	-1355.5522	-1359.9224	-1363.7631	-1369.0525	-1373.2433	-1368.4135	-1352.4359	-1359.5854	-1381.8219	-1392.4094	-1397.1911	-1402.3339	-1408.1201	-1411.6675	-1415.7117	-1419.0643	-1424.4982	-1427.9668	-1416.8715	-1417.1341	-1435.1207	-1435.1645	-1426.1701	-1439.3706	-1454.4641	-1462.5481	-1468.5378	-1472.3347	-1476.9019	-1481.5195	-1485.3317	-1488.8835	-1493.3632	-1498.3309	-1502.5195	-1506.5396	-1510.0827	-1514.9475	-1518.8057	-1523.5370	-1527.6359	-1532.3301	-1537.0264	-1540.8036	-1544.1825	-1548.1852	-1553.5446	-1556.6171	-1547.8350	-1552.1243	-1565.7559	-1574.8488	-1578.8974	-1580.3986	-1567.7430	-1573.4810	-1590.7082	-1597.2253	-1603.9613	-1609.0121	-1612.3232	-1616.8948	-1618.9847	-1623.5563	-1628.9092	-1633.1066	-1636.6628	-1641.2781	-1645.7644	-1648.7231	-1654.3845	-1658.5250	-1663.6109	-1667.4516	-1670.4366	-1675.4874	-1679.0567	-1683.2475	-1688.9483	-1691.0755	-1696.8420	-1698.9385	-1699.8226	-1706.5979	-1712.0339	-1717.1898	-1720.0632	-1724.2497
-1174.4434	-1178.5160	-1181.4463	-1184.1402	-1191.6531	-1196.3778	-1201.9649	-1207.2105	-1202.5010	-1194.6271	-1209.1341	-1221.7197	-1229.9569	-1234.8742	-1239.1920	-1244.2997	-1248.2980	-1253.7077	-1257.4412	-1261.7961	-1267.0768	-1270.6789	-1274.9748	-1279.6908	-1284.9649	-1289.2607	-1291.7686	-1296.8020	-1302.3540	-1306.5842	-1310.0572	-1314.6485	-1320.0495	-1324.4154	-1328.9673	-1332.7401	-1337.2133	-1342.3954	-1345.9319	-1350.1096	-1354.8891	-1359.5942	-1364.3255	-1367.6060	-1371.9565	-1377.2766	-1380.8371	-1385.2796	-1389.6608	-1393.3833	-1399.1935	-1402.8022	-1406.4809	-1411.6587	-1415.5716	-1420.8720	-1424.0977	-1421.5854	-1409.9518	-1419.5436	-1435.3396	-1442.2134	-1449.2863	-1452.1772	-1458.1822	-1462.7692	-1466.5420	-1472.4157	-1476.0069	-1473.3742	-1474.8842	-1486.4697	-1491.3323	-1496.3351	-1500.8607	-1505.4454	-1508.0671	-1506.8898	-1515.4727	-1521.3092	-1526.9291	-1530.7479	-1535.6740	-1539.9020	-1544.3139	-1547.6468	-1552.4394	-1556.1816	-1560.8539	-1564.9484	-1568.7628	-1573.0806	-1577.4027	-1581.8714	-1586.3445	-1589.9182	-1594.8903	-1598.6587	-1603.5148	-1607.5525	-1611.3888	-1616.5556	-1619.8010	-1624.2413	-1627.9222	-1630.9532	-1636.0369	-1640.5384	-1644.9547	-1649.0404	-1654.0519	-1657.8641	-1662.4335	-1665.2894	-1671.4016	-1674.5661	-1677.7918	-1683.5911	-1686.9678	-1691.4760	-1694.4566	-1682.0439	-1675.5859	-1696.8967	-1708.9767	-1714.3668	-1710.8784	-1701.5996
-1174.0560	-1179.3958	-1182.7703	-1173.7256	-1183.1095	-1192.7188	-1201.5775	-1205.6852	-1211.2219	-1216.5441	-1220.5773	-1225.1643	-1230.6375	-1233.8260	-1238.7740	-1242.7963	-1245.4399	-1252.8171	-1256.2923	-1261.1221	-1265.4114	-1270.6329	-1275.7998	-1279.5814	-1283.8772	-1287.0373	-1293.1824	-1297.1521	-1300.6689	-1305.7198	-1310.7903	-1314.9111	-1318.3010	-1323.1089	-1328.0788	-1332.4403	-1336.7581	-1340.4149	-1345.5292	-1350.1030	-1353.8146	-1357.8062	-1362.9862	-1367.7504	-1370.9936	-1374.8715	-1379.3402	-1385.1789	-1388.6541	-1392.2366	-1391.4531	-1399.7888	-1405.3758	-1409.3784	-1415.1186	-1418.5938	-1423.3339	-1426.7829	-1430.7767	-1436.5826	-1440.5086	-1444.4477	-1448.8114	-1452.7112	-1457.7424	-1461.7690	-1464.8613	-1470.6321	-1474.5560	-1473.5449	-1471.7679	-1477.6788	-1486.1108	-1495.0329	-1500.4296	-1504.5197	-1508.7302	-1509.0497	-1512.6935	-1520.0618	-1525.3403	-1529.5136	-1534.9299	-1538.8953	-1542.2414	-1548.1611	-1551.3321	-1555.9124	-1560.5650	-1564.4582	-1569.2683	-1573.0127	-1576.4091	-1581.5913	-1585.1037	-1589.5090	-1593.5116	-1598.0000	-1602.7314	-1607.3511	-1610.3558	-1614.6079	-1612.6624	-1609.8284	-1623.4163	-1629.6073	-1635.0433	-1640.5187	-1644.3288	-1648.6093	-1652.3515	-1657.9057	-1662.0265	-1665.1450	-1669.5043	-1673.7542	-1678.0938	-1681.7310	-1684.8232	-1691.0405	-1694.6645	-1693.7585	-1699.2120	-1706.1077	-1711.7319	-1705.2105	-1704.7947	-1719.7656
-1173.3141	-1178.4569	-1183.4771	-1187.2719	-1191.4692	-1197.1460	-1201.8598	-1206.7684	-1210.8017	-1215.1238	-1219.7239	-1224.4530	-1228.9765	-1232.9922	-1238.1372	-1242.7350	-1246.1096	-1250.7118	-1256.0669	-1260.5487	-1265.4683	-1269.5562	-1273.2853	-1278.8964	-1282.5926	-1277.1303	-1267.1490	-1285.4376	-1297.6796	-1302.9908	-1308.3481	-1313.3967	-1317.2659	-1321.8309	-1326.5666	-1330.4007	-1335.5085	-1334.5149	-1326.9365	-1341.7980	-1351.1425	-1357.1059	-1360.8394	-1365.2840	-1369.6456	-1375.3529	-1378.6793	-1382.9008	-1387.7634	-1392.1928	-1395.3375	-1399.4736	-1404.8002	-1409.0020	-1412.8842	-1417.1210	-1422.0231	-1426.6100	-1431.1269	-1435.2498	-1439.6726	-1444.0166	-1444.0932	-1449.3432	-1455.1666	-1461.1454	-1466.0452	-1469.3453	-1473.2429	-1478.4032	-1482.2526	-1483.9070	-1484.3754	-1492.3609	-1500.0291	-1503.7713	-1508.5005	-1512.6081	-1516.6523	-1522.6376	-1525.5022	-1529.4720	-1534.2712	-1538.3045	-1543.0074	-1546.0733	-1551.2336	-1555.5251	-1559.4839	-1563.8039	-1567.5789	-1572.5181	-1576.2078	-1580.1754	-1584.7886	-1589.0450	-1593.3168	-1597.4836	-1601.6197	-1605.9418	-1610.8066	-1614.5051	-1611.8264	-1593.6079	-1596.9605	-1619.8776	-1631.5068	-1629.7123	-1616.1398	-1624.8234	-1645.2960	-1654.4327	-1659.8556	-1664.8627	-1669.1848	-1672.8613	-1678.0457	-1681.2561	-1684.1557	-1688.5829	-1694.1677	-1698.0215	-1701.9497	-1706.9371	-1709.4013	-1714.8001	-1719.5511	-1722.5055
-1169.5194	-1176.7937	-1182.1532	-1187.5082	-1192.9026	-1196.5245	-1201.2624	-1205.5407	-1211.2503	-1215.3098	-1218.4021	-1223.5995	-1227.6962	-1232.8478	-1236.4390	-1231.4931	-1219.8398	-1235.5920	-1251.2042	-1258.0736	-1264.1771	-1268.9041	-1272.8520	-1276.8152	-1281.7282	-1286.5646	-1288.8055	-1286.7594	-1289.3307	-1296.6794	-1303.5948	-1310.8932	-1316.3314	-1321.1131	-1326.2931	-1329.2277	-1328.6194	-1322.7522	-1321.8681	-1338.7736	-1349.5975	-1355.7666	-1361.2617	-1365.2031	-1368.9671	-1374.3747	-1379.1389	-1383.4391	-1387.1354	-1390.4114	-1385.5422	-1373.8145	-1386.6255	-1404.6142	-1412.7048	-1418.1540	-1419.3313	-1422.5001	-1429.0982	-1434.8625	-1437.9569	-1426.7916	-1429.6212	-1446.8988	-1454.5385	-1460.2787	-1463.8984	-1469.8706	-1474.2540	-1476.8407	-1481.6683	-1487.3166	-1490.0149	-1494.7594	-1499.3419	-1501.8542	-1506.2070	-1510.5991	-1515.3458	-1519.9240	-1524.4890	-1529.7237	-1532.7809	-1536.1314	-1542.2108	-1545.0842	-1550.0081	-1553.5840	-1559.0091	-1564.1934	-1566.6138	-1570.1415	-1575.1836	-1579.9150	-1583.5915	-1588.4782	-1591.1218	-1597.2144	-1600.9456	-1601.3133	-1606.3970	-1611.6579	-1617.5010	-1620.8011	-1625.1451	-1629.5898	-1634.6560	-1638.3128	-1641.7618	-1646.4778	-1650.3994	-1655.3671	-1658.9058	-1662.5473	-1667.7711	-1671.1894	-1674.6383	-1679.6104	-1683.6808	-1688.7186	-1691.8458	-1695.4983	-1700.9409	-1705.1295	-1709.0227	-1713.5986	-1718.3716	-1722.5427
-1166.6898	-1155.0431	-1159.0566	-1179.1791	-1189.2896	-1195.2508	-1200.5971	-1203.8819	-1209.5937	-1213.3446	-1218.9973	-1223.5952	-1226.8296	-1232.2394	-1237.7608	-1240.9055	-1245.3195	-1249.6001	-1254.5021	-1259.6362	-1262.8531	-1267.9368	-1272.3596	-1276.7605	-1280.4502	-1285.6039	-1290.6416	-1294.0315	-1298.4280	-1302.8836	-1307.3326	-1312.5345	-1315.9747	-1320.2290	-1324.0871	-1329.2387	-1333.7928	-1337.6663	-1333.9481	-1318.2616	-1337.4868	-1351.3504	-1358.4737	-1364.4284	-1368.6542	-1373.7379	-1377.1759	-1381.4849	-1386.1834	-1380.8108	-1365.3497	-1376.3049	-1396.9088	-1406.0936	-1411.6784	-1414.9676	-1411.1554	-1404.2181	-1418.4253	-1431.4923	-1437.8059	-1442.2812	-1446.1503	-1445.4719	-1451.6279	-1459.1911	-1463.1653	-1467.0716	-1472.7680	-1476.5408	-1480.9155	-1485.0932	-1489.2468	-1494.8688	-1498.2280	-1501.8148	-1505.8131	-1510.4656	-1513.9605	-1519.9656	-1523.7012	-1527.4543	-1531.9209	-1536.3984	-1540.3091	-1545.5219	-1549.3822	-1553.1857	-1557.0876	-1560.1689	-1565.9507	-1569.5900	-1573.5467	-1578.1052	-1583.1013	-1587.8414	-1591.4851	-1595.9254	-1598.9783	-1593.2096	-1595.2711	-1608.9990	-1615.1813	-1620.6392	-1625.4318	-1628.8873	-1633.9010	-1638.0699	-1642.3439	-1646.3355	-1649.5175	-1654.9360	-1660.2823	-1662.9938	-1667.1386	-1671.2857	-1675.7303	-1679.3171	-1683.1315	-1687.2086	-1691.1477	-1696.7128	-1701.5274	-1704.5474	-1709.7470	-1713.5177	-1716.4545	-1721.4354
-1170.1234	-1175.9796	-1180.0304	-1185.7093	-1189.3837	-1193.5635	-1199.3782	-1204.0198	-1208.1318	-1212.5502	-1217.0474	-1222.3456	-1226.3744	-1231.0773	-1235.4520	-1240.5969	-1244.5733	-1248.8976	-1253.3094	-1256.9685	-1262.7284	-1266.6172	-1271.0575	-1275.2811	-1280.0081	-1284.8161	-1287.7857	-1292.5608	-1298.1588	-1302.1614	-1306.2187	-1309.6261	-1315.3663	-1318.9969	-1323.3825	-1327.9935	-1332.2193	-1337.3205	-1335.3706	-1324.6802	-1328.3480	-1348.1772	-1357.2110	-1361.8570	-1366.8531	-1371.9653	-1376.4340	-1379.9377	-1384.7412	-1390.0700	-1393.6393	-1398.2700	-1402.1282	-1406.4306	-1411.7375	-1415.7927	-1419.9091	-1423.3668	-1429.2602	-1433.3328	-1435.8013	-1441.2352	-1445.7761	-1449.7175	-1453.1686	-1457.7686	-1463.5767	-1467.7675	-1471.3784	-1474.0220	-1464.4192	-1468.3168	-1483.8567	-1491.2142	-1497.3505	-1501.3618	-1506.4696	-1510.6166	-1515.0482	-1519.1186	-1523.2438	-1527.2420	-1531.4000	-1536.6260	-1539.6963	-1544.2788	-1547.7497	-1552.4569	-1558.3131	-1561.2194	-1565.0907	-1569.4565	-1573.2885	-1577.2911	-1581.2302	-1586.4080	-1590.8592	-1595.3521	-1599.0330	-1602.8474	-1603.3857	-1609.1609	-1615.5796	-1619.4946	-1623.9459	-1628.3752	-1632.4041	-1635.8530	-1640.7529	-1640.8207	-1625.7513	-1624.5324	-1639.7287	-1651.7694	-1663.4840	-1669.4474	-1673.9511	-1678.2492	-1683.6611	-1686.2281	-1690.1936	-1694.9862	-1698.5095	-1703.0746	-1706.9831	-1710.4802	-1716.4108	-1720.0785
-1170.0184	-1174.9773	-1179.1988	-1183.9126	-1188.1604	-1193.1237	-1196.7652	-1202.1137	-1206.7816	-1211.9353	-1216.3493	-1220.4263	-1225.1336	-1230.3552	-1234.3862	-1238.7280	-1243.1136	-1248.7860	-1251.2633	-1256.6709	-1261.7983	-1265.5142	-1270.3244	-1274.0140	-1278.2552	-1283.9057	-1288.0024	-1292.2304	-1296.7232	-1300.6449	-1305.3062	-1308.5472	-1298.1150	-1299.1545	-1316.4693	-1326.3084	-1331.5628	-1335.6836	-1340.9379	-1345.7087	-1349.7594	-1353.8058	-1358.0295	-1362.5792	-1366.6781	-1370.9126	-1375.5149	-1380.1040	-1384.1569	-1388.4878	-1392.5342	-1397.2524	-1401.8634	-1405.2007	-1410.0503	-1414.9042	-1418.8258	-1422.7978	-1427.2534	-1431.7484	-1435.8385	-1440.7931	-1444.5287	-1448.7261	-1452.7593	-1457.8365	-1461.4342	-1465.0079	-1470.9582	-1474.5166	-1478.4032	-1482.8041	-1487.5179	-1491.7744	-1495.5779	-1499.7971	-1505.0690	-1509.9339	-1512.9495	-1503.7275	-1491.7678	-1496.6414	-1500.8519	-1516.1380	-1534.0961	-1541.8300	-1547.3448	-1552.0324	-1555.0261	-1560.6110	-1564.7143	-1567.9203	-1572.5925	-1576.8600	-1581.3112	-1585.1869	-1588.8678	-1593.4678	-1598.0132	-1602.6723	-1605.1189	-1610.9358	-1615.3892	-1619.9258	-1623.6920	-1627.0250	-1632.3384	-1636.5271	-1639.8775	-1644.0486	-1647.7602	-1652.6819	-1657.0413	-1660.2801	-1665.0334	-1669.0688	-1672.9489	-1677.3716	-1681.3436	-1686.1603	-1690.0163	-1693.8591	-1699.3433	-1702.7769	-1706.8255	-1708.2742	-1700.9956	-1715.5332
-1168.3443	-1174.9642	-1178.6495	-1183.3699	-1188.2260	-1192.2965	-1197.4261	-1201.6213	-1205.3394	-1210.6769	-1215.5155	-1219.9405	-1224.2779	-1229.1953	-1234.0339	-1238.5639	-1242.3367	-1247.1403	-1247.8472	-1235.4367	-1245.5603	-1259.9929	-1268.0878	-1273.4254	-1278.4828	-1282.2009	-1287.1708	-1291.8606	-1295.5437	-1300.1853	-1303.8946	-1309.7027	-1313.4733	-1317.1280	-1321.6099	-1327.0612	-1330.9522	-1335.1189	-1339.8569	-1344.3103	-1348.5099	-1352.8101	-1356.3947	-1360.4849	-1364.5684	-1368.0305	-1357.8719	-1368.9759	-1381.4280	-1387.0850	-1391.7070	-1396.2611	-1400.8458	-1403.9424	-1391.2977	-1389.0415	-1404.6186	-1418.0642	-1425.0693	-1430.4769	-1434.6787	-1440.2241	-1444.5178	-1448.2293	-1452.8250	-1458.0466	-1461.7056	-1465.3318	-1469.1265	-1474.2890	-1478.3813	-1482.6662	-1485.5287	-1490.8968	-1495.9236	-1499.9372	-1503.8873	-1507.7389	-1513.1421	-1516.6282	-1520.6483	-1524.7494	-1529.6580	-1534.7767	-1538.0834	-1542.5587	-1546.9575	-1551.1680	-1554.7526	-1557.9696	-1559.7750	-1563.6507	-1571.1963	-1575.1048	-1573.5992	-1567.4870	-1580.0135	-1590.6010	-1596.2209	-1601.1163	-1605.7952	-1609.4761	-1613.5006	-1617.6651	-1622.7269	-1626.7273	-1629.8830	-1630.8438	-1637.0589	-1643.1251	-1646.6003	-1651.9926	-1655.5488	-1660.4574	-1664.7379	-1667.7754	-1673.3778	-1676.4416	-1680.8950	-1684.6634	-1689.7406	-1693.3865	-1698.0697	-1702.2167	-1705.1886	-1710.7800	-1713.9575	-1718.4066
-1167.9525	-1172.6467	-1177.2402	-1182.9454	-1187.1996	-1191.2788	-1195.8483	-1201.2383	-1204.6851	-1209.5762	-1214.7146	-1219.0783	-1223.7855	-1226.6896	-1228.0705	-1217.2969	-1225.9477	-1241.8947	-1249.2084	-1254.2855	-1259.5946	-1263.2339	-1255.5657	-1244.6980	-1251.6506	-1273.3334	-1283.1332	-1284.8729	-1291.1975	-1299.0342	-1303.3322	-1306.6411	-1312.3222	-1315.8215	-1321.2335	-1324.8421	-1328.8907	-1334.3924	-1338.8808	-1342.4501	-1347.2012	-1352.4293	-1356.6551	-1360.4477	-1365.0915	-1369.1991	-1362.7980	-1361.2114	-1376.7798	-1385.8858	-1391.0592	-1396.0291	-1400.2790	-1404.0146	-1409.4375	-1412.3109	-1416.1581	-1420.2111	-1418.2327	-1417.9986	-1429.5096	-1437.8015	-1442.5548	-1447.9536	-1451.9956	-1455.9194	-1459.6375	-1464.9007	-1470.7065	-1459.8629	-1467.7215	-1479.6834	-1485.3383	-1489.6757	-1493.5383	-1498.8911	-1502.7384	-1506.7913	-1511.4679	-1516.1271	-1519.8233	-1525.4979	-1528.6951	-1532.8422	-1537.2869	-1541.4098	-1544.5239	-1546.9925	-1552.7546	-1558.4773	-1561.3156	-1566.0361	-1571.7981	-1574.7109	-1577.8754	-1581.2718	-1586.5371	-1591.8703	-1596.0567	-1599.3065	-1601.5562	-1606.1497	-1611.6711	-1616.7219	-1621.2694	-1625.2020	-1629.0099	-1633.1854	-1637.3280	-1642.7137	-1646.7207	-1651.2857	-1653.4873	-1658.0961	-1663.4030	-1667.7142	-1672.0013	-1675.2598	-1680.2932	-1684.0003	-1688.8696	-1692.6927	-1697.8027	-1702.1576	-1705.1579	-1709.9790	-1713.9313	-1717.4284
-1168.0248	-1172.0252	-1176.7084	-1181.9409	-1187.0464	-1191.8435	-1195.0320	-1199.6627	-1203.6368	-1209.7359	-1214.1653	-1211.2634	-1213.4497	-1224.5099	-1231.0905	-1235.5592	-1240.4197	-1245.5209	-1250.0509	-1252.5172	-1258.2268	-1261.7283	-1263.8445	-1270.0421	-1275.1542	-1279.4238	-1284.2317	-1289.1382	-1291.0071	-1296.3993	-1302.1264	-1307.0591	-1310.7203	-1314.7689	-1318.3010	-1321.7784	-1328.3283	-1332.8736	-1337.4080	-1342.4698	-1346.6519	-1350.9499	-1354.0619	-1339.9969	-1342.4239	-1361.8264	-1371.0177	-1376.3027	-1382.6907	-1385.6691	-1389.8162	-1394.8014	-1388.5381	-1380.8568	-1398.8478	-1409.3412	-1416.5301	-1421.1280	-1423.6994	-1424.9249	-1419.8347	-1427.9011	-1435.6875	-1445.2772	-1450.6256	-1455.8078	-1460.3072	-1463.2922	-1468.8661	-1472.4573	-1476.8232	-1480.7995	-1485.0800	-1490.4898	-1492.2887	-1496.6524	-1501.8039	-1506.3558	-1510.3453	-1514.4770	-1518.7291	-1523.0928	-1527.5200	-1530.9164	-1535.9410	-1539.6897	-1544.3904	-1547.9050	-1552.0390	-1557.5341	-1560.4687	-1565.5677	-1569.6710	-1573.4701	-1578.5800	-1583.0641	-1586.7757	-1591.0343	-1595.3061	-1599.4050	-1602.7248	-1606.5239	-1611.3603	-1615.9428	-1619.5822	-1623.5388	-1627.4101	-1633.5464	-1637.0720	-1640.8142	-1644.6220	-1649.5875	-1653.5354	-1656.2250	-1661.7661	-1664.9436	-1670.9246	-1675.3977	-1677.8465	-1683.8625	-1686.6921	-1690.8566	-1696.2533	-1699.4221	-1704.3417	-1708.9286	-1711.7166	-1715.8221



